time,seconds_elapsed,z,y,x
1685921017211695900,0.21569580078125,0.5605049133300781,-4.238603115081787,-0.9327403903007507
1685921017221651700,0.225651611328125,-0.1566905975341797,-3.812985420227051,-0.9386033415794373
1685921017231607300,0.235607177734375,-0.8008813858032227,-3.226243257522583,-0.7990937232971191
1685921017241563100,0.245563232421875,-1.4384880065917969,-2.555011749267578,-0.6641412973403931
1685921017251518700,0.255518798828125,-2.0305118560791016,-2.001307249069214,-0.6243125200271606
1685921017261474300,0.265474365234375,-2.458545684814453,-1.672969102859497,-0.5490567684173584
1685921017271430100,0.27543017578125,-2.740692138671875,-1.42521071434021,-0.4718409776687622
1685921017281386000,0.285385986328125,-2.9455084800720215,-1.3527963161468506,-0.37991321086883545
1685921017291341600,0.295341552734375,-2.931488513946533,-1.2335691452026367,-0.2181515097618103
1685921017301297400,0.30529736328125,-2.793180465698242,-1.1045186519622803,0.07685744762420654
1685921017311253000,0.3152529296875,-2.5941596031188965,-0.880486786365509,0.30702510476112366
1685921017321208800,0.325208740234375,-2.3922038078308105,-0.7642793655395508,0.5889678001403809
1685921017331164400,0.335164306640625,-2.19248628616333,-0.7552255988121033,0.7790329456329346
1685921017341120300,0.345120361328125,-2.123581886291504,-0.8034707903862,0.8552123308181763
1685921017351076000,0.355076171875,-2.174548625946045,-0.8721776604652405,0.8190951943397522
1685921017361031700,0.36503173828125,-2.1614017486572266,-1.0383342504501343,0.7142110466957092
1685921017370987500,0.374987548828125,-2.1025185585021973,-1.1700302362442017,0.5891643762588501
1685921017380943000,0.384943115234375,-1.8587193489074707,-1.1027055978775024,0.4375267028808594
1685921017390899000,0.39489892578125,-1.3804097175598145,-1.0723834037780762,0.409060001373291
1685921017400854500,0.4048544921875,-0.7780838012695312,-1.0129436254501343,0.4884306788444519
1685921017410810400,0.414810302734375,-0.0678863525390625,-0.8106849193572998,0.5313611626625061
1685921017420766200,0.42476611328125,0.6977291107177734,-0.5673079490661621,0.6662242412567139
1685921017430721800,0.4347216796875,1.5259208679199219,-0.3691241145133972,0.7338033318519592
1685921017440677600,0.444677734375,2.2658653259277344,-0.27045005559921265,0.6557371020317078
1685921017450633200,0.45463330078125,2.886728286743164,-0.3009563088417053,0.5252355337142944
1685921017460589000,0.464589111328125,3.1858510971069336,-0.40115028619766235,0.32323071360588074
1685921017470544600,0.474544677734375,3.009341239929199,-0.5491875410079956,0.09926825761795044
1685921017480500500,0.48450048828125,2.5228271484375,-0.6055036187171936,-0.05443951487541199
1685921017490456300,0.494456298828125,1.8125371932983398,-0.5053273439407349,-0.06624731421470642
1685921017500412000,0.504411865234375,0.9041681289672852,-0.4070453345775604,-0.05015981197357178
1685921017510367700,0.51436767578125,-0.09790325164794922,-0.13083820044994354,0.006921440362930298
1685921017520323300,0.5243232421875,-1.021697998046875,0.04017704725265503,0.05071714520454407
1685921017530279200,0.534279052734375,-1.8184113502502441,0.23696082830429077,0.026885986328125
1685921017540234800,0.54423486328125,-2.16679048538208,0.3219904601573944,0.03313499689102173
1685921017550190600,0.554190673828125,-2.2855191230773926,0.48684316873550415,-0.025107860565185547
1685921017560146200,0.564146240234375,-2.133152484893799,0.6688293218612671,0.1211022138595581
1685921017570102000,0.57410205078125,-1.729611873626709,0.7951815724372864,0.24368375539779663
1685921017580057900,0.584057861328125,-1.3727412223815918,0.903462290763855,0.3335513472557068
1685921017590013400,0.594013427734375,-0.9675302505493164,0.9948019981384277,0.4034419059753418
1685921017599969300,0.60396923828125,-0.6435651779174805,1.0591117143630981,0.41797393560409546
1685921017609830100,0.613830078125,-0.3497352600097656,1.052892804145813,0.46488437056541443
1685921017619590700,0.623590576171875,-0.061799049377441406,1.056333303451538,0.5219186544418335
1685921017629352200,0.633352294921875,0.22524356842041016,0.9557130336761475,0.521575927734375
1685921017639112700,0.64311279296875,0.3659801483154297,0.7891902327537537,0.355317085981369
1685921017648872400,0.65287255859375,0.4407205581665039,0.7379854321479797,0.445115864276886
1685921017658633000,0.662633056640625,0.7680187225341797,0.7573512196540833,0.5800410509109497
1685921017668394500,0.67239453125,0.9932041168212891,0.8130064606666565,0.5416862368583679
1685921017678155000,0.682155029296875,1.0805435180664062,0.8243609666824341,0.366634339094162
1685921017687914800,0.691914794921875,1.3124847412109375,0.6599712371826172,0.27524638175964355
1685921017697675300,0.70167529296875,1.4302129745483398,0.5086698532104492,0.218427836894989
1685921017707436800,0.711436767578125,1.4356718063354492,0.30296170711517334,0.2490556240081787
1685921017717197300,0.721197265625,1.4342432022094727,0.3283548653125763,0.41128063201904297
1685921017726957000,0.73095703125,1.6073799133300781,0.4066751003265381,0.6244229674339294
1685921017736717800,0.7407177734375,1.6602401733398438,0.692194402217865,0.9746578335762024
1685921017746479000,0.75047900390625,1.724257469177246,1.054431676864624,1.2370679378509521
1685921017756239600,0.760239501953125,1.813385009765625,1.4348329305648804,1.5160441398620605
1685921017765999400,0.769999267578125,1.7716073989868164,1.7528431415557861,1.6282706260681152
1685921017775760000,0.779759765625,1.7281932830810547,1.7084994316101074,1.5912673473358154
1685921017785521400,0.789521484375,1.7493696212768555,1.37689208984375,1.4340912103652954
1685921017795282000,0.799281982421875,1.7540569305419922,0.9319149255752563,1.2141497135162354
1685921017805041700,0.809041748046875,1.6763639450073242,0.5665691494941711,0.9123927354812622
1685921017814802400,0.818802490234375,1.675522804260254,0.25573599338531494,0.6197524070739746
1685921017824563700,0.828563720703125,1.63006591796875,0.11040195822715759,0.4365190863609314
1685921017834324200,0.83832421875,1.557098388671875,0.08120980858802795,0.4496672749519348
1685921017844084000,0.848083984375,1.4238719940185547,-0.1041705310344696,0.7563127279281616
1685921017853844700,0.8578447265625,0.7777395248413086,-0.49602869153022766,1.463474154472351
1685921017863606000,0.86760595703125,0.07900047302246094,-0.4963645339012146,1.975848913192749
1685921017873366500,0.877366455078125,-0.3123941421508789,-0.3858908712863922,2.161393642425537
1685921017883126500,0.88712646484375,-0.08325481414794922,-0.23315444588661194,1.8971328735351562
1685921017892887000,0.896886962890625,0.847050666809082,-0.15509682893753052,1.2425169944763184
1685921017902648300,0.9066484375,2.130265235900879,-0.3540361523628235,0.3519403338432312
1685921017912408800,0.916408935546875,3.7008514404296875,-0.7179539203643799,-0.5994378328323364
1685921017922168800,0.9261689453125,5.349050521850586,-1.2197275161743164,-1.4206781387329102
1685921017931929300,0.935929443359375,6.0950775146484375,-1.887629747390747,-2.344766616821289
1685921017941690600,0.945690673828125,5.953758239746094,-2.634147882461548,-3.2278361320495605
1685921017951451400,0.955451416015625,4.535896301269531,-3.2219343185424805,-3.7629218101501465
1685921017961211100,0.965211181640625,2.29360294342041,-3.409385919570923,-3.9364683628082275
1685921017970971600,0.9749716796875,-0.11840534210205078,-3.1475167274475098,-3.522571086883545
1685921017980733000,0.98473291015625,-2.2556238174438477,-2.8235652446746826,-2.853489398956299
1685921017990493700,0.99449365234375,-3.9604086875915527,-2.4628705978393555,-2.0162160396575928
1685921018000253400,1.00425341796875,-5.30499267578125,-2.106903553009033,-1.0751845836639404
1685921018010014000,1.014013916015625,-6.082577705383301,-1.6963838338851929,-0.25434139370918274
1685921018019775500,1.023775390625,-6.2766313552856445,-1.2327622175216675,0.34850040078163147
1685921018029536000,1.033535888671875,-5.757273197174072,-0.6931350827217102,0.7747740745544434
1685921018039295700,1.043295654296875,-4.570318698883057,-0.0805681049823761,1.1611882448196411
1685921018049056300,1.05305615234375,-2.9398937225341797,0.48045116662979126,1.2915533781051636
1685921018058817800,1.06281787109375,-1.1727485656738281,0.9793073534965515,1.4327207803726196
1685921018068578300,1.072578369140625,0.768031120300293,1.5045453310012817,1.5355850458145142
1685921018078338000,1.082338134765625,2.650022506713867,1.8316079378128052,1.547402262687683
1685921018088098800,1.092098876953125,4.182851791381836,1.9511702060699463,1.3714696168899536
1685921018097860000,1.101860107421875,5.251965522766113,1.9094231128692627,1.0520533323287964
1685921018107620600,1.11162060546875,5.643013954162598,1.7342579364776611,0.7607754468917847
1685921018117380400,1.12138037109375,5.069262504577637,1.5442173480987549,0.3377193212509155
1685921018127141000,1.13114111328125,3.797658920288086,1.1511644124984741,-0.1601918339729309
1685921018136902400,1.14090234375,2.1282196044921875,0.6560357213020325,-0.5308759212493896
1685921018146663000,1.150662841796875,0.3955373764038086,0.14830966293811798,-0.836786150932312
1685921018156422700,1.160422607421875,-1.1361055374145508,-0.38558462262153625,-1.1321861743927002
1685921018166183400,1.170183349609375,-2.3999924659729004,-0.8878164887428284,-1.2997345924377441
1685921018175944700,1.17994482421875,-3.287777900695801,-1.3101520538330078,-1.3684632778167725
1685921018185705500,1.18970556640625,-3.829803943634033,-1.47560715675354,-1.3264766931533813
1685921018195465200,1.19946533203125,-3.9231786727905273,-1.639255404472351,-1.1336963176727295
1685921018205225700,1.209225830078125,-3.873666286468506,-1.7400822639465332,-0.9612439274787903
1685921018214987000,1.218987060546875,-3.6043763160705566,-1.8650532960891724,-0.8080059885978699
1685921018224747800,1.228747802734375,-3.3236308097839355,-1.9705686569213867,-0.6812252998352051
1685921018234507500,1.238507568359375,-3.209402561187744,-1.950831413269043,-0.5190094113349915
1685921018244268000,1.24826806640625,-3.0940985679626465,-1.9217802286148071,-0.417141854763031
1685921018254029600,1.258029541015625,-3.08221435546875,-1.849348545074463,-0.2837878167629242
1685921018263790000,1.2677900390625,-2.9545750617980957,-1.673525333404541,-0.25981396436691284
1685921018273549800,1.2775498046875,-2.6979727745056152,-1.560185432434082,-0.15365120768547058
1685921018283310300,1.287310302734375,-2.5104551315307617,-1.3995826244354248,-0.10351096093654633
1685921018293072000,1.29707177734375,-2.1919074058532715,-1.1146280765533447,-0.06539875268936157
1685921018302832400,1.306832275390625,-1.9213638305664062,-0.8113056421279907,0.025564327836036682
1685921018312592100,1.316592041015625,-1.605679988861084,-0.4002304673194885,0.14258909225463867
1685921018322352600,1.3263525390625,-1.2379732131958008,0.16502124071121216,0.44676488637924194
1685921018332114200,1.3361142578125,-0.8090324401855469,0.7335357069969177,0.8036457300186157
1685921018341874700,1.345874755859375,-0.31924915313720703,1.3173558712005615,1.0759429931640625
1685921018351634400,1.355634521484375,0.17637348175048828,1.8635387420654297,1.3584179878234863
1685921018361395200,1.365395263671875,0.7563982009887695,2.3042635917663574,1.6697032451629639
1685921018371156500,1.375156494140625,1.344329833984375,2.6431403160095215,1.9465503692626953
1685921018380917000,1.3849169921875,1.806960105895996,2.8752083778381348,2.1624560356140137
1685921018390677000,1.394677001953125,2.0213871002197266,2.888425350189209,2.137929916381836
1685921018400437500,1.4044375,2.079117774963379,2.652517080307007,1.9184865951538086
1685921018410198800,1.41419873046875,1.9401865005493164,2.38155460357666,1.5980170965194702
1685921018419959600,1.42395947265625,1.7290964126586914,1.9392775297164917,1.095855474472046
1685921018429719300,1.43371923828125,1.5081853866577148,1.6428539752960205,0.6964573860168457
1685921018439479800,1.443479736328125,1.4543676376342773,1.7262156009674072,0.45926791429519653
1685921018449241300,1.453241455078125,1.5272846221923828,1.902721643447876,0.36084628105163574
1685921018459001900,1.463001953125,1.7648744583129883,2.2333967685699463,0.30705899000167847
1685921018468761600,1.47276171875,1.9950551986694336,2.57894229888916,0.2981938123703003
1685921018478522000,1.482522216796875,2.044384002685547,2.709463357925415,0.325422465801239
1685921018488283600,1.49228369140625,2.253952980041504,2.7721214294433594,0.6511868238449097
1685921018498044200,1.502044189453125,2.448701858520508,3.077859878540039,1.1077144145965576
1685921018507804000,1.511803955078125,2.0975236892700195,2.733950138092041,1.1201930046081543
1685921018517564700,1.521564697265625,2.114100456237793,2.52642822265625,0.888029932975769
1685921018527326000,1.531325927734375,2.609964370727539,1.8881877660751343,0.8739673495292664
1685921018537086500,1.54108642578125,2.9139270782470703,0.7930186986923218,0.7489151358604431
1685921018546846500,1.550846435546875,2.6520986557006836,-0.24819833040237427,0.13629519939422607
1685921018556607000,1.56060693359375,2.5160112380981445,-1.1845413446426392,-0.6856572031974792
1685921018566368300,1.5703681640625,2.469363212585449,-2.0378479957580566,-1.205365777015686
1685921018576129000,1.58012890625,2.344754219055176,-2.7182202339172363,-1.6698402166366577
1685921018585888800,1.589888671875,1.9733219146728516,-3.276336908340454,-2.0492656230926514
1685921018595649300,1.599649169921875,1.2232303619384766,-3.749924421310425,-2.3611793518066406
1685921018605410600,1.60941064453125,0.26361083984375,-4.03316593170166,-2.504612684249878
1685921018615171300,1.61917138671875,-0.9011659622192383,-3.9371471405029297,-2.488659620285034
1685921018624931000,1.62893115234375,-1.9003324508666992,-3.596550226211548,-2.235118865966797
1685921018634691600,1.638691650390625,-2.8010916709899902,-3.1577084064483643,-1.8808164596557617
1685921018644453000,1.648453125,-3.4448161125183105,-2.7341177463531494,-1.4548242092132568
1685921018654213600,1.658213623046875,-3.8884572982788086,-2.2979352474212646,-1.0686445236206055
1685921018663973400,1.667973388671875,-4.022269248962402,-1.9742324352264404,-0.7394553422927856
1685921018673734000,1.67773388671875,-3.85601806640625,-1.7584781646728516,-0.37327682971954346
1685921018683495400,1.687495361328125,-3.4824843406677246,-1.5911188125610352,0.018787413835525513
1685921018693256000,1.697255859375,-2.8912196159362793,-1.5165092945098877,0.32972413301467896
1685921018703015700,1.707015625,-2.4427223205566406,-1.3710641860961914,0.6156296133995056
1685921018712776400,1.7167763671875,-2.0288243293762207,-1.296264886856079,0.7569606900215149
1685921018722537700,1.726537841796875,-1.727632999420166,-1.321838140487671,0.7706078886985779
1685921018732298500,1.736298583984375,-1.4335746765136719,-1.3948731422424316,0.9155555963516235
1685921018742058200,1.746058349609375,-1.1464605331420898,-1.2463293075561523,1.038839340209961
1685921018751818800,1.75581884765625,-0.8232688903808594,-1.1060476303100586,1.179866075515747
1685921018761580000,1.765580078125,-0.44025135040283203,-0.8837869167327881,1.2824506759643555
1685921018771340800,1.7753408203125,0.00006866455078125,-0.6014792919158936,1.3244349956512451
1685921018781100500,1.7851005859375,0.46439075469970703,-0.23356026411056519,1.3029239177703857
1685921018790861000,1.794861083984375,1.0291519165039062,0.09169107675552368,1.2699227333068848
1685921018800622600,1.80462255859375,1.5846843719482422,0.29733094573020935,1.179194688796997
1685921018810383000,1.814383056640625,2.1335487365722656,0.4137841761112213,1.1473017930984497
1685921018820142800,1.824142822265625,2.439777374267578,0.4865551292896271,1.060978889465332
1685921018829903400,1.8339033203125,2.296807289123535,0.3997020125389099,0.8816694021224976
1685921018839665000,1.843664794921875,1.7157859802246094,0.2824627161026001,0.6932520866394043
1685921018849425400,1.85342529296875,0.7986764907836914,0.2133224904537201,0.41668131947517395
1685921018859185400,1.863185302734375,-0.2072916030883789,0.11926260590553284,0.1905079483985901
1685921018868946000,1.87294580078125,-1.1677570343017578,-0.011659771203994751,0.00545114278793335
1685921018878707200,1.882707275390625,-2.027644634246826,0.07502111792564392,-0.18716967105865479
1685921018888468000,1.892468017578125,-2.758551597595215,0.16557973623275757,-0.36898598074913025
1685921018898227700,1.902227783203125,-3.1850361824035645,0.3250274062156677,-0.4948071539402008
1685921018907988200,1.91198828125,-3.2304348945617676,0.4518677592277527,-0.5000808835029602
1685921018917749800,1.921749755859375,-2.9827799797058105,0.4616296589374542,-0.5217795372009277
1685921018927510300,1.93151025390625,-2.486626148223877,0.4272233247756958,-0.5222674608230591
1685921018937270000,1.94127001953125,-1.843285083770752,0.3999581038951874,-0.5609557032585144
1685921018947030500,1.951030517578125,-1.1176977157592773,0.4417445659637451,-0.5291833877563477
1685921018956792000,1.9607919921875,-0.42200565338134766,0.49258866906166077,-0.47696879506111145
1685921018966552600,1.970552490234375,0.16554927825927734,0.6156097650527954,-0.4187949597835541
1685921018976312300,1.980312255859375,0.7671003341674805,0.7065585255622864,-0.382479190826416
1685921018986073000,1.990072998046875,1.2396984100341797,0.8309227228164673,-0.25916996598243713
1685921018995834400,1.99983447265625,1.3433818817138672,0.990879237651825,-0.194154292345047
1685921019005595000,2.009594970703125,1.3133440017700195,1.0355749130249023,-0.1882755607366562
1685921019015355000,2.01935498046875,1.1954212188720703,1.1383881568908691,-0.1263587772846222
1685921019025115400,2.029115478515625,1.0423707962036133,1.1804550886154175,-0.11984944343566895
1685921019034876700,2.038876708984375,0.887629508972168,1.293859601020813,0.013469874858856201
1685921019044637400,2.048637451171875,0.7668476104736328,1.2330029010772705,0.0716530978679657
1685921019054397200,2.058397216796875,0.6393404006958008,1.1592755317687988,0.1427636444568634
1685921019064157700,2.06815771484375,0.4837932586669922,1.1485403776168823,0.26198962330818176
1685921019073919200,2.077919189453125,0.512476921081543,1.13211190700531,0.4183966815471649
1685921019083679700,2.0876796875,0.5316324234008789,1.1650358438491821,0.6185852885246277
1685921019093439500,2.097439453125,0.47941017150878906,1.3628418445587158,0.81878662109375
1685921019103200000,2.107199951171875,0.5539312362670898,1.5890716314315796,0.9590097665786743
1685921019112961500,2.11696142578125,0.7307338714599609,1.7402069568634033,1.0239465236663818
1685921019122722000,2.12672216796875,0.8234357833862305,1.681656837463379,0.9705963134765625
1685921019132482000,2.13648193359375,0.9014225006103516,1.5086379051208496,0.7233709096908569
1685921019142242600,2.14624267578125,1.0194330215454102,1.318325161933899,0.44728654623031616
1685921019152003800,2.15600390625,1.2033367156982422,1.160231113433838,0.35167670249938965
1685921019161764400,2.165764404296875,1.3621788024902344,0.9930627942085266,0.18480145931243896
1685921019171524400,2.1755244140625,1.2220077514648438,0.753058910369873,0.11061042547225952
1685921019181284900,2.185284912109375,0.8127899169921875,0.40652310848236084,0.2133445143699646
1685921019191046100,2.195046142578125,0.05237007141113281,0.04474940896034241,0.070794016122818
1685921019200807000,2.204806884765625,-0.497589111328125,-0.19034641981124878,-0.0638822615146637
1685921019210566700,2.214566650390625,-0.4874429702758789,-0.5861489176750183,0.08139368891716003
1685921019220327200,2.2243271484375,0.0070171356201171875,-1.0181108713150024,0.21785256266593933
1685921019230088700,2.234088623046875,0.9841775894165039,-1.2486764192581177,0.07423791289329529
1685921019239849200,2.24384912109375,2.1037731170654297,-1.4961060285568237,-0.22011718153953552
1685921019249609000,2.25360888671875,3.334230422973633,-1.769365906715393,-0.6995351314544678
1685921019259369700,2.26336962890625,4.357597351074219,-2.036140203475952,-1.2962185144424438
1685921019269131000,2.273131103515625,4.844657897949219,-2.542598009109497,-2.09580659866333
1685921019278891500,2.2828916015625,4.715314865112305,-3.135333776473999,-2.73728084564209
1685921019288651500,2.292651611328125,3.8330516815185547,-3.604041814804077,-3.045360803604126
1685921019298412000,2.302412109375,2.174954414367676,-3.7603368759155273,-2.9229841232299805
1685921019308173300,2.31217333984375,0.2914705276489258,-3.339592456817627,-2.406585931777954
1685921019317934000,2.32193408203125,-1.3832941055297852,-2.926274061203003,-1.5794743299484253
1685921019327693800,2.33169384765625,-2.970581531524658,-2.628817558288574,-0.8070671558380127
1685921019337454300,2.341454345703125,-4.351258754730225,-2.3014419078826904,-0.055307790637016296
1685921019347216000,2.3512158203125,-5.390892028808594,-1.9203180074691772,0.7456269264221191
1685921019356976400,2.360976318359375,-5.572520732879639,-1.3593908548355103,1.5378227233886719
1685921019366736100,2.370736083984375,-5.215493202209473,-0.46067893505096436,2.2700183391571045
1685921019376496600,2.38049658203125,-4.1527252197265625,0.5600128173828125,2.7654519081115723
1685921019386258200,2.390258056640625,-2.586073875427246,1.4205280542373657,3.1134955883026123
1685921019396018700,2.400018798828125,-0.961674690246582,1.9036710262298584,3.3134684562683105
1685921019405778400,2.4097783203125,0.8164482116699219,2.2165582180023193,3.2712273597717285
1685921019415539200,2.419539306640625,2.4989137649536133,2.5120882987976074,2.9624245166778564
1685921019425300500,2.429300537109375,3.9147348403930664,2.445073366165161,2.5593252182006836
1685921019435061200,2.439061279296875,4.952994346618652,2.449148416519165,2.164518356323242
1685921019444821000,2.448821044921875,5.432584762573242,2.3526642322540283,1.8090744018554688
1685921019454581500,2.45858154296875,5.105182647705078,2.2195067405700684,1.4121265411376953
1685921019464343000,2.468343017578125,3.884507179260254,1.9868830442428589,0.8771348595619202
1685921019474103600,2.478103515625,2.3432960510253906,1.5957907438278198,0.4371336102485657
1685921019483863300,2.48786328125,0.7346963882446289,0.9857540726661682,-0.020249545574188232
1685921019493623800,2.497623779296875,-0.7851581573486328,0.3998080790042877,-0.6200448870658875
1685921019503385300,2.50738525390625,-1.9445099830627441,-0.21450816094875336,-1.0867998600006104
1685921019513145900,2.517145751953125,-2.8116955757141113,-0.7820029258728027,-1.4304531812667847
1685921019522905600,2.526905517578125,-3.2451863288879395,-1.4409127235412598,-1.6431070566177368
1685921019532666400,2.536666259765625,-3.4044504165649414,-1.9114395380020142,-1.841219425201416
1685921019542427600,2.546427734375,-3.336118698120117,-2.323284387588501,-1.8081996440887451
1685921019552188200,2.556188232421875,-3.2129569053649902,-2.547971725463867,-1.78591787815094
1685921019561948200,2.5659482421875,-3.0043444633483887,-2.658954381942749,-1.6788221597671509
1685921019571708700,2.575708740234375,-3.008852005004883,-2.7142903804779053,-1.5537118911743164
1685921019581470000,2.585469970703125,-3.0159153938293457,-2.63301157951355,-1.4102071523666382
1685921019591230700,2.595230712890625,-2.9158825874328613,-2.49409818649292,-1.2264854907989502
1685921019600990500,2.604990478515625,-2.892744541168213,-2.2592570781707764,-1.0413296222686768
1685921019610751000,2.6147509765625,-2.6646876335144043,-1.9974933862686157,-0.7683454751968384
1685921019620512500,2.624512451171875,-2.454148769378662,-1.655920386314392,-0.6122949719429016
1685921019630273000,2.63427294921875,-2.122610569000244,-1.4210540056228638,-0.450652152299881
1685921019640032800,2.64403271484375,-1.7610483169555664,-1.146343469619751,-0.3237663805484772
1685921019649793500,2.65379345703125,-1.3337249755859375,-0.8324365019798279,-0.1958712637424469
1685921019659554800,2.663554931640625,-0.8646745681762695,-0.40661150217056274,-0.03304724395275116
1685921019669315300,2.6733154296875,-0.4255208969116211,0.17919117212295532,0.13740381598472595
1685921019679075300,2.683075439453125,0.08171653747558594,0.8476252555847168,0.45929697155952454
1685921019688835800,2.6928359375,0.7475204467773438,1.743146538734436,0.8750646114349365
1685921019698597000,2.70259716796875,1.5570745468139648,2.7520499229431152,1.4259706735610962
1685921019708358000,2.71235791015625,2.2927255630493164,3.560706377029419,1.9708187580108643
1685921019718117600,2.72211767578125,2.615663528442383,4.166608810424805,2.1535749435424805
1685921019727878100,2.731878173828125,2.6294479370117188,4.29192590713501,1.8918976783752441
1685921019737639700,2.7416396484375,2.56131649017334,4.001152992248535,1.3193316459655762
1685921019747400200,2.751400146484375,2.587630271911621,3.3513171672821045,0.7441012859344482
1685921019757160000,2.761159912109375,2.619318962097168,2.7216384410858154,0.38742566108703613
1685921019766920400,2.77092041015625,2.5369997024536133,2.2718801498413086,0.005574226379394531
1685921019776682000,2.780681884765625,2.3513593673706055,2.000013828277588,0.066714346408844
1685921019786442500,2.7904423828125,2.3259897232055664,1.831176996231079,0.7096168994903564
1685921019796202500,2.800202392578125,2.2364511489868164,1.5697178840637207,1.6008641719818115
1685921019805963000,2.809962890625,1.8181476593017578,1.3192663192749023,1.765550136566162
1685921019815724300,2.819724365234375,1.8097553253173828,0.8412445783615112,1.3915048837661743
1685921019825485000,2.829485107421875,2.4131650924682617,0.26719930768013,0.8709210157394409
1685921019835244800,2.839244873046875,3.342578887939453,-0.30706095695495605,0.30900686979293823
1685921019845005300,2.84900537109375,4.396299362182617,-0.9024924635887146,-0.24519836902618408
1685921019854766800,2.858766845703125,5.110237121582031,-1.400282859802246,-0.6487823128700256
1685921019864527400,2.86852734375,5.334014892578125,-1.8185819387435913,-0.9636266231536865
1685921019874287000,2.878287109375,4.848843574523926,-2.0305142402648926,-1.0899523496627808
1685921019884048000,2.8880478515625,3.4039602279663086,-1.8599573373794556,-0.9899803400039673
1685921019893809200,2.89780908203125,1.6498241424560547,-1.38118314743042,-0.8575201034545898
1685921019903569700,2.907569580078125,-0.16774463653564453,-1.0307481288909912,-0.6568126082420349
1685921019913329700,2.91732958984375,-1.920820713043213,-0.8640388250350952,-0.4092545509338379
1685921019923090200,2.927090087890625,-3.360727310180664,-0.6576907634735107,-0.40911489725112915
1685921019932851500,2.9368515625,-4.259424209594727,-0.6642876863479614,-0.43042948842048645
1685921019942612200,2.9466123046875,-4.650331974029541,-0.9347148537635803,-0.38663315773010254
1685921019952372000,2.9563720703125,-4.767349720001221,-1.3795325756072998,-0.36869022250175476
1685921019962132500,2.966132568359375,-4.6907124519348145,-1.9315048456192017,-0.5778042078018188
1685921019971894000,2.97589404296875,-4.368901252746582,-2.508082389831543,-0.653901994228363
1685921019981654500,2.985654541015625,-3.907787799835205,-2.959712266921997,-0.6799319386482239
1685921019991414300,2.995414306640625,-3.505742073059082,-2.869424819946289,-0.5516870021820068
1685921020001175000,3.005175048828125,-3.3174362182617188,-2.8672900199890137,-0.35844358801841736
1685921020010936300,3.014936279296875,-3.330084800720215,-2.9159183502197266,-0.4618411660194397
1685921020020696800,3.02469677734375,-3.4690728187561035,-3.0146195888519287,-0.4371764063835144
1685921020030456800,3.034456787109375,-3.397739887237549,-3.001009464263916,-0.3280641436576843
1685921020040217300,3.04421728515625,-3.217216968536377,-2.8969268798828125,-0.09415267407894135
1685921020049978600,3.053978515625,-2.8993282318115234,-2.6430141925811768,0.3106522858142853
1685921020059739400,3.063739501953125,-2.2391366958618164,-2.1512157917022705,0.7045373320579529
1685921020069499100,3.0734990234375,-1.1942367553710938,-1.43380606174469,1.1790052652359009
1685921020079259600,3.083259765625,0.10393428802490234,-0.6772275567054749,1.7284016609191895
1685921020089021200,3.093021240234375,1.8396072387695312,0.11038912832736969,2.2854413986206055
1685921020098781700,3.10278173828125,3.3655662536621094,0.692859411239624,2.588911533355713
1685921020108541400,3.11254150390625,4.486330986022949,1.0075551271438599,2.6225104331970215
1685921020118302200,3.12230224609375,4.955392837524414,1.076486349105835,2.4566397666931152
1685921020128063500,3.1320634765625,4.609644889831543,0.9869255423545837,2.04403018951416
1685921020137824000,3.141823974609375,3.5612926483154297,0.9782791137695312,1.5928761959075928
1685921020147584000,3.151583984375,1.990677833557129,0.861362099647522,1.108676552772522
1685921020157344500,3.161344482421875,0.43772029876708984,0.5434399843215942,0.6427465677261353
1685921020167105800,3.171105712890625,-0.9810943603515625,0.3858608603477478,0.22695666551589966
1685921020176866600,3.180866455078125,-2.2932653427124023,0.1895603984594345,-0.2008306384086609
1685921020186626300,3.190626220703125,-3.2782950401306152,0.011692360043525696,-0.5931770205497742
1685921020196386800,3.20038671875,-3.9221534729003906,-0.08805505931377411,-0.9463846683502197
1685921020206148400,3.2101484375,-4.2542572021484375,-0.16812728345394135,-1.2168413400650024
1685921020215908900,3.219908935546875,-4.156189441680908,-0.1684412658214569,-1.364866018295288
1685921020225668600,3.229668701171875,-3.5434365272521973,-0.16859391331672668,-1.3722636699676514
1685921020235429400,3.239429443359375,-2.5418386459350586,-0.11802536249160767,-1.27521550655365
1685921020245190700,3.249190673828125,-1.4702033996582031,-0.057163357734680176,-1.0906893014907837
1685921020254951400,3.258951416015625,-0.5318241119384766,0.10996747016906738,-0.9530242085456848
1685921020264711200,3.268711181640625,0.4333639144897461,0.3263401389122009,-0.7451326847076416
1685921020274471700,3.2784716796875,1.2936973571777344,0.6565877199172974,-0.6223544478416443
1685921020284233000,3.28823291015625,1.9583044052124023,0.9599645137786865,-0.5099173784255981
1685921020293993700,3.29799365234375,2.33419132232666,1.2438758611679077,-0.3208143413066864
1685921020303753500,3.30775341796875,2.6271257400512695,1.5724519491195679,-0.16263890266418457
1685921020313514000,3.317513916015625,2.7655229568481445,1.8370814323425293,0.1364564299583435
1685921020323275500,3.327275634765625,2.7734737396240234,2.077759265899658,0.5168483853340149
1685921020333036000,3.3370361328125,2.787252426147461,2.3536131381988525,0.8921271562576294
1685921020342795800,3.346795654296875,2.5513839721679688,2.4361672401428223,1.2006134986877441
1685921020352556500,3.356556640625,2.116692543029785,2.3505101203918457,1.3238937854766846
1685921020362317800,3.36631787109375,1.6535825729370117,2.095027446746826,1.2644734382629395
1685921020372078600,3.37607861328125,1.1602239608764648,1.6360564231872559,1.0205310583114624
1685921020381838300,3.38583837890625,0.725489616394043,1.2759008407592773,0.6490030884742737
1685921020391598800,3.395598876953125,0.4259929656982422,0.9339428544044495,0.2921198606491089
1685921020401360400,3.4053603515625,0.2520895004272461,0.7083885669708252,0.06035196781158447
1685921020411121000,3.415120849609375,0.3969135284423828,0.6503795385360718,-0.10600697994232178
1685921020420880600,3.424880615234375,0.6423025131225586,0.6460404396057129,-0.10436511039733887
1685921020430641400,3.434641357421875,1.0928163528442383,0.7897260189056396,-0.018018722534179688
1685921020440402700,3.444402587890625,1.4563980102539062,0.8468952178955078,-0.00634312629699707
1685921020450163200,3.4541630859375,1.6517515182495117,0.7720062732696533,0.0120164155960083
1685921020459923000,3.4639228515625,1.585982322692871,0.5211538076400757,0.06294739246368408
1685921020469683700,3.47368359375,1.2715721130371094,0.12021040916442871,0.16050982475280762
1685921020479445000,3.483445068359375,0.8645105361938477,-0.18223440647125244,0.09695374965667725
1685921020489205800,3.493205810546875,0.6233654022216797,-0.3228791654109955,-0.07785117626190186
1685921020498965500,3.502965576171875,0.6321468353271484,-0.3030303418636322,-0.41645097732543945
1685921020508726000,3.51272607421875,1.2612123489379883,-0.268846720457077,-0.8675639629364014
1685921020518487600,3.522487548828125,2.2969436645507812,-0.5226550102233887,-1.3115919828414917
1685921020528248000,3.532248046875,3.310039520263672,-0.8624781966209412,-1.7942246198654175
1685921020538007800,3.5420078125,3.997992515563965,-1.320518136024475,-2.424160957336426
1685921020547768600,3.5517685546875,4.23306941986084,-1.8752925395965576,-3.0440726280212402
1685921020557529900,3.56152978515625,3.9261178970336914,-2.6166176795959473,-3.259310722351074
1685921020567290400,3.571290283203125,2.9816856384277344,-3.1586992740631104,-3.296818256378174
1685921020577050400,3.58105029296875,1.275040626525879,-3.3061349391937256,-3.1269264221191406
1685921020586811000,3.590810791015625,-0.4615764617919922,-3.1983559131622314,-2.566004753112793
1685921020596572200,3.600572265625,-2.1203927993774414,-3.1719071865081787,-1.885617971420288
1685921020606333000,3.6103330078125,-3.7663416862487793,-3.1369895935058594,-1.3112633228302002
1685921020616092700,3.6200927734375,-5.056494235992432,-2.9654438495635986,-0.9127495288848877
1685921020625853200,3.629853271484375,-5.9886860847473145,-2.6804091930389404,-0.5853424072265625
1685921020635614700,3.63961474609375,-6.13653564453125,-2.3155746459960938,-0.22806301712989807
1685921020645375200,3.649375244140625,-5.471498012542725,-2.1275229454040527,0.18643710017204285
1685921020655135000,3.659135009765625,-4.203672409057617,-2.1425282955169678,0.4953922927379608
1685921020664895700,3.668895751953125,-2.6090030670166016,-2.10695481300354,0.8337389826774597
1685921020674657000,3.678656982421875,-1.091482162475586,-1.8557627201080322,1.1482949256896973
1685921020684417500,3.68841748046875,0.14856719970703125,-1.2833330631256104,1.334564208984375
1685921020694177500,3.698177490234375,1.3642797470092773,-0.6751874685287476,1.504281997680664
1685921020703938000,3.70793798828125,2.286990165710449,-0.02595899999141693,1.6274254322052002
1685921020713699600,3.717699462890625,2.9872589111328125,0.6475554704666138,1.7125606536865234
1685921020723460000,3.727460205078125,3.258164405822754,1.309308409690857,1.7024786472320557
1685921020733219800,3.7372197265625,3.202075958251953,1.9409174919128418,1.7271925210952759
1685921020742980400,3.74698046875,2.8600759506225586,2.3604040145874023,1.6266034841537476
1685921020752742000,3.756741943359375,2.1663389205932617,2.713550567626953,1.4420738220214844
1685921020762502400,3.76650244140625,1.344639778137207,2.8019962310791016,1.1348283290863037
1685921020772262400,3.776262451171875,0.6207981109619141,2.8030648231506348,0.7183324098587036
1685921020782023000,3.78602294921875,0.04808521270751953,2.6698474884033203,0.4045957326889038
1685921020791784200,3.7957841796875,-0.3730144500732422,2.3738667964935303,0.10695314407348633
1685921020801545000,3.805544921875,-0.6470432281494141,1.9755303859710693,-0.1883840560913086
1685921020811304700,3.8153046875,-0.7573814392089844,1.6349098682403564,-0.4717280864715576
1685921020821065200,3.825065185546875,-0.7924909591674805,1.1622954607009888,-0.6812398433685303
1685921020830826800,3.83482666015625,-0.7690019607543945,0.7856160402297974,-0.948567271232605
1685921020840587300,3.844587158203125,-0.710871696472168,0.45829153060913086,-1.2458255290985107
1685921020850347000,3.854346923828125,-0.6182670593261719,-0.0019366554915904999,-1.4770764112472534
1685921020860107800,3.864107666015625,-0.4200115203857422,-0.38909482955932617,-1.7065925598144531
1685921020869869000,3.873869140625,-0.36050987243652344,-0.6237725019454956,-1.9229680299758911
1685921020879629600,3.883629638671875,-0.4304065704345703,-0.8366227746009827,-2.0409278869628906
1685921020889389600,3.8933896484375,-0.5437812805175781,-0.9694368243217468,-2.1726059913635254
1685921020899150000,3.903150146484375,-0.6530294418334961,-1.0476945638656616,-2.2061824798583984
1685921020908911400,3.912911376953125,-0.8943538665771484,-1.0519579648971558,-2.215250253677368
1685921020918672100,3.922672119140625,-1.148092269897461,-0.9604069590568542,-2.1369800567626953
1685921020928431900,3.932431884765625,-1.4450674057006836,-0.9642634987831116,-2.08962345123291
1685921020938192400,3.9421923828125,-1.8085951805114746,-0.9973817467689514,-1.9854341745376587
1685921020947954000,3.951953857421875,-2.166482448577881,-0.9833450317382812,-1.987407922744751
1685921020957714400,3.96171435546875,-2.434783935546875,-0.8789956569671631,-1.926552414894104
1685921020967474200,3.97147412109375,-2.4914979934692383,-0.7217118144035339,-1.8335275650024414
1685921020977235000,3.98123486328125,-2.403740882873535,-0.5609368681907654,-1.6805388927459717
1685921020986996200,3.990996337890625,-2.169412612915039,-0.21336884796619415,-1.4641624689102173
1685921020996757000,4.000757080078125,-1.8868231773376465,0.07288829982280731,-1.2274887561798096
1685921021006516700,4.010516845703125,-1.6302337646484375,0.35603004693984985,-0.9265153408050537
1685921021016277200,4.02027734375,-1.2707586288452148,0.5636066198348999,-0.6745357513427734
1685921021026038800,4.030038818359375,-0.9928922653198242,0.7463477849960327,-0.49892789125442505
1685921021035799300,4.03979931640625,-0.8995828628540039,0.7377985715866089,-0.37127017974853516
1685921021045559000,4.04955908203125,-0.7325220108032227,0.7142871022224426,-0.18327808380126953
1685921021055319800,4.05931982421875,-0.3460683822631836,0.5890378952026367,0.0684504508972168
1685921021065081000,4.0690810546875,0.16590309143066406,0.44127053022384644,0.4213443994522095
1685921021074841600,4.078841552734375,0.4730052947998047,0.2855868637561798,0.5712201595306396
1685921021084601600,4.0886015625,0.4749908447265625,0.16299358010292053,0.5745207071304321
1685921021094362000,4.098362060546875,0.5213899612426758,-0.03611958026885986,0.49513399600982666
1685921021104123400,4.108123291015625,0.7388410568237305,-0.2121516913175583,0.43708348274230957
1685921021113884200,4.11788427734375,1.019486427307129,-0.40434473752975464,0.36703312397003174
1685921021123644000,4.127643798828125,1.2414789199829102,-0.6219280362129211,0.4828503131866455
1685921021133404400,4.137404296875,1.433858871459961,-0.871160089969635,0.8491847515106201
1685921021143166000,4.147166015625,1.1694669723510742,-1.2424978017807007,1.20054292678833
1685921021152926500,4.156926513671875,0.6649484634399414,-1.5423345565795898,1.1998103857040405
1685921021162686200,4.166686279296875,0.7749137878417969,-1.2283270359039307,1.3537628650665283
1685921021172447000,4.176447021484375,1.6425838470458984,-0.5126590728759766,1.783434271812439
1685921021182208300,4.186208251953125,3.1042280197143555,0.3834168314933777,2.2597670555114746
1685921021191969000,4.195968994140625,4.498821258544922,0.99872225522995,2.340442657470703
1685921021201728800,4.205728759765625,5.566994667053223,1.536085605621338,1.9103251695632935
1685921021211489300,4.2154892578125,6.323993682861328,1.847839593887329,1.479184627532959
1685921021221250800,4.225250732421875,6.392827033996582,1.8670111894607544,0.9513571262359619
1685921021231011300,4.23501123046875,5.6694231033325195,1.6298556327819824,0.12933361530303955
1685921021240771000,4.24477099609375,4.469491958618164,1.4205646514892578,-0.7077641487121582
1685921021250531800,4.25453173828125,3.0626983642578125,1.1094874143600464,-1.3418203592300415
1685921021260293000,4.264293212890625,1.5136604309082031,0.6360548734664917,-1.889744520187378
1685921021270053600,4.2740537109375,-0.11254501342773438,0.21049581468105316,-2.3587613105773926
1685921021279813600,4.283813720703125,-1.8009753227233887,-0.4960632920265198,-2.638063430786133
1685921021289574100,4.29357421875,-3.2623376846313477,-1.250561237335205,-2.853372097015381
1685921021299335400,4.30333544921875,-4.5574951171875,-1.944413423538208,-2.8969204425811768
1685921021309096200,4.31309619140625,-5.664647102355957,-2.4169397354125977,-2.972172975540161
1685921021318856000,4.32285595703125,-6.529460906982422,-2.712164878845215,-2.864647150039673
1685921021328616400,4.332616455078125,-7.170039176940918,-2.9543588161468506,-2.6896162033081055
1685921021338378000,4.3423779296875,-7.576371192932129,-3.026808261871338,-2.4911210536956787
1685921021348138500,4.352138427734375,-7.523948669433594,-2.9471330642700195,-2.1956939697265625
1685921021357898200,4.361898193359375,-7.149478912353516,-2.7652854919433594,-1.8738806247711182
1685921021367659000,4.371658935546875,-6.39078426361084,-2.5000243186950684,-1.454795241355896
1685921021377420300,4.381420166015625,-5.278733730316162,-2.143094539642334,-1.1241391897201538
1685921021387181000,4.39118115234375,-3.874582290649414,-1.7616233825683594,-0.9386481642723083
1685921021396940800,4.40094091796875,-2.3986945152282715,-1.3274481296539307,-0.8737265467643738
1685921021406701300,4.410701416015625,-0.9077882766723633,-0.8035938143730164,-0.9612014293670654
1685921021416462800,4.420462890625,0.9579486846923828,-0.49887406826019287,-1.0295413732528687
1685921021426223400,4.430223388671875,3.2142515182495117,-0.3561369776725769,-0.9703654050827026
1685921021435983000,4.439983154296875,5.594551086425781,-0.26179593801498413,-0.7551012635231018
1685921021445743900,4.449743896484375,7.301069259643555,-0.33745211362838745,-0.45337873697280884
1685921021455505200,4.459505126953125,7.621908187866211,-0.3484484553337097,-0.25694185495376587
1685921021465265700,4.469265625,6.560504913330078,-0.21281689405441284,-0.23999716341495514
1685921021475025700,4.479025634765625,4.482653617858887,0.15476453304290771,-0.3170560896396637
1685921021484786200,4.4887861328125,2.40017032623291,0.2538982629776001,-0.326876163482666
1685921021494547500,4.49854736328125,0.809321403503418,0.24032795429229736,-0.2560586929321289
1685921021504308200,4.50830810546875,-0.2925558090209961,0.15974938869476318,-0.1426880657672882
1685921021514068000,4.51806787109375,-1.0956954956054688,-0.05562478303909302,-0.04355308413505554
1685921021523828500,4.527828369140625,-1.6163263320922852,-0.23538470268249512,-0.049608051776885986
1685921021533590000,4.537590087890625,-1.956747055053711,-0.5422780513763428,-0.12237787246704102
1685921021543350500,4.5473505859375,-2.185163974761963,-0.7731510996818542,-0.13493043184280396
1685921021553110300,4.5571103515625,-2.1278109550476074,-0.8380110263824463,-0.0808057188987732
1685921021562871000,4.56687109375,-1.8163466453552246,-0.8901403546333313,0.016754627227783203
1685921021572632300,4.57663232421875,-1.4851322174072266,-0.9161990284919739,0.059429705142974854
1685921021582393000,4.58639306640625,-1.0812606811523438,-0.7075725793838501,0.186021625995636
1685921021592152800,4.59615283203125,-0.7121982574462891,-0.487440288066864,0.41110125184059143
1685921021601913300,4.605913330078125,-0.20859909057617188,-0.23514258861541748,0.5527701377868652
1685921021611675000,4.6156748046875,0.1616840362548828,-0.14149677753448486,0.6583061218261719
1685921021621435400,4.625435302734375,0.38729000091552734,0.07083708047866821,0.7429147958755493
1685921021631195100,4.635195068359375,0.4903278350830078,0.4552278518676758,0.9134082794189453
1685921021640956000,4.644955810546875,0.7694950103759766,0.8607357740402222,1.1671658754348755
1685921021650717200,4.65471728515625,1.3362607955932617,1.3119585514068604,1.5835756063461304
1685921021660477700,4.664477783203125,2.0081911087036133,1.7822232246398926,2.0557613372802734
1685921021670237700,4.67423779296875,2.4482297897338867,2.4063544273376465,2.6008214950561523
1685921021679998200,4.683998291015625,2.7572498321533203,3.18778657913208,2.978973627090454
1685921021689759700,4.693759765625,2.8808164596557617,3.871762990951538,3.323218584060669
1685921021699520300,4.703520263671875,2.760061264038086,4.23259973526001,3.4640676975250244
1685921021709280000,4.713280029296875,2.3650569915771484,4.281881332397461,3.2604362964630127
1685921021719040500,4.72304052734375,1.770965576171875,3.9636785984039307,2.7639966011047363
1685921021728802000,4.732802001953125,1.1433439254760742,3.231999397277832,2.0998854637145996
1685921021738562600,4.7425625,0.6424093246459961,2.32170033454895,1.5263484716415405
1685921021748322600,4.752322509765625,0.3109254837036133,1.4636515378952026,1.2611271142959595
1685921021758083000,4.7620830078125,-0.5797109603881836,0.46749329566955566,1.2541369199752808
1685921021767844400,4.77184423828125,-1.6694450378417969,-0.5156463384628296,1.1179454326629639
1685921021777605000,4.781605224609375,-2.496344566345215,-1.4627443552017212,0.8797634840011597
1685921021787364900,4.79136474609375,-2.6574339866638184,-1.9397225379943848,0.5155689716339111
1685921021797125400,4.80112548828125,-1.7777142524719238,-2.041033983230591,-0.182673841714859
1685921021806887000,4.810886962890625,-0.011273384094238281,-2.0611047744750977,-1.1301028728485107
1685921021816647400,4.8206474609375,2.337982177734375,-2.4572412967681885,-2.081390142440796
1685921021826407200,4.8304072265625,4.673504829406738,-3.136363983154297,-2.896300792694092
1685921021836168000,4.84016796875,6.070703506469727,-3.8601927757263184,-3.4673166275024414
1685921021845929200,4.84992919921875,6.411613464355469,-4.381977081298828,-3.6179604530334473
1685921021855690000,4.85968994140625,5.5214128494262695,-4.5411057472229,-3.0869944095611572
1685921021865449700,4.86944970703125,3.5396528244018555,-4.169264793395996,-2.1932551860809326
1685921021875210200,4.879210205078125,1.1416702270507812,-3.317681312561035,-1.2076506614685059
1685921021884971800,4.8889716796875,-0.9463558197021484,-2.6537773609161377,-0.2451213002204895
1685921021894732300,4.898732177734375,-2.5217247009277344,-1.980177879333496,0.7397723197937012
1685921021904492000,4.908491943359375,-3.4742069244384766,-1.3543386459350586,1.6671562194824219
1685921021914252800,4.918252685546875,-3.840240001678467,-0.6274612545967102,2.4581596851348877
1685921021924014000,4.92801416015625,-3.7658519744873047,0.016023576259613037,3.033151388168335
1685921021933774600,4.937774658203125,-3.176093101501465,0.4940565228462219,3.377176284790039
1685921021943534600,4.94753466796875,-2.245551586151123,0.6543140411376953,3.3968968391418457
1685921021953295000,4.957295166015625,-1.3074588775634766,0.5636802315711975,3.2702834606170654
1685921021963056400,4.967056396484375,-0.48674869537353516,0.4720582962036133,2.977231502532959
1685921021972817200,4.976817138671875,0.25559043884277344,0.37025588750839233,2.4496662616729736
1685921021982577000,4.986576904296875,0.7163591384887695,0.3707435429096222,1.8718750476837158
1685921021992337700,4.996337646484375,1.158280372619629,0.42768341302871704,1.2632930278778076
1685921022002099000,5.006098876953125,1.6310319900512695,0.6099955439567566,0.8920223116874695
1685921022011859500,5.015859375,1.904921531677246,0.9262003898620605,0.8351231813430786
1685921022021619200,5.025619140625,1.7412042617797852,1.2545868158340454,0.794883131980896
1685921022031380000,5.0353798828125,1.202585220336914,1.347355604171753,0.7200755476951599
1685921022041141200,5.045141357421875,0.38767051696777344,1.1048859357833862,0.5196816921234131
1685921022050902000,5.054902099609375,-0.5545816421508789,0.7013589143753052,0.21089714765548706
1685921022060661800,5.064661865234375,-1.3678789138793945,0.28614598512649536,-0.15427574515342712
1685921022070422300,5.07442236328125,-1.861156940460205,-0.17439566552639008,-0.397365540266037
1685921022080183800,5.084183837890625,-2.1497249603271484,-0.5776464343070984,-0.6377639174461365
1685921022089944300,5.0939443359375,-2.3010072708129883,-0.9781507253646851,-0.8310073614120483
1685921022099704000,5.1037041015625,-2.308291435241699,-1.1984798908233643,-0.9048625230789185
1685921022109464800,5.11346484375,-2.351139545440674,-1.3973215818405151,-0.9880228042602539
1685921022119226000,5.12322607421875,-2.2815914154052734,-1.5534374713897705,-1.1048336029052734
1685921022128987000,5.13298681640625,-2.2195773124694824,-1.6792840957641602,-1.15785551071167
1685921022138746600,5.14274658203125,-2.16050386428833,-1.7431703805923462,-1.1337502002716064
1685921022148507100,5.152507080078125,-2.1737618446350098,-1.7400274276733398,-1.1823601722717285
1685921022158268700,5.1622685546875,-2.0873022079467773,-1.5722383260726929,-1.0987930297851562
1685921022168029200,5.172029296875,-1.992067813873291,-1.482165813446045,-1.0041091442108154
1685921022177789000,5.181788818359375,-1.854433536529541,-1.4407553672790527,-0.9354512095451355
1685921022187549700,5.1915498046875,-1.674295425415039,-1.4236645698547363,-0.9299899935722351
1685921022197311000,5.20131103515625,-1.4038667678833008,-1.3646116256713867,-0.911547839641571
1685921022207071500,5.211071533203125,-1.0695476531982422,-1.3251029253005981,-0.8717954158782959
1685921022216831500,5.22083154296875,-0.7502241134643555,-1.2224503755569458,-0.73828125
1685921022226592000,5.230592041015625,-0.35983943939208984,-1.0445836782455444,-0.611016035079956
1685921022236353500,5.240353515625,-0.046634674072265625,-0.7487655878067017,-0.5328967571258545
1685921022246114000,5.250114013671875,0.22533416748046875,-0.3335196375846863,-0.3921835124492645
1685921022255873800,5.259873779296875,0.44171142578125,0.1766582876443863,-0.17641431093215942
1685921022265634300,5.26963427734375,0.64312744140625,0.7391881942749023,0.0007927119731903076
1685921022275395800,5.279395751953125,0.8916206359863281,1.3292148113250732,0.249991312623024
1685921022285156400,5.28915625,1.3112144470214844,1.9652918577194214,0.6888353824615479
1685921022294916400,5.298916259765625,1.6794929504394531,2.5876758098602295,1.1779762506484985
1685921022304676900,5.3086767578125,1.9561529159545898,3.0369396209716797,1.578831672668457
1685921022314438400,5.3184384765625,1.940983772277832,3.227553367614746,1.7262707948684692
1685921022324199000,5.328198974609375,1.7160043716430664,3.23213267326355,1.6045893430709839
1685921022333958700,5.337958740234375,1.6375627517700195,3.1232573986053467,1.4320061206817627
1685921022343719200,5.34771923828125,1.9058294296264648,3.1711771488189697,1.3074560165405273
1685921022353480700,5.357480712890625,2.4099559783935547,3.3320276737213135,1.207405924797058
1685921022363241200,5.3672412109375,3.110982894897461,3.465261459350586,1.2620779275894165
1685921022373001200,5.377001220703125,3.970065116882324,3.6536831855773926,1.6321594715118408
1685921022382761700,5.38676171875,4.576098442077637,3.814087390899658,2.201305866241455
1685921022392523000,5.39652294921875,4.521613121032715,3.796987295150757,2.367095947265625
1685921022402283800,5.40628369140625,4.2025346755981445,3.557166337966919,2.287750482559204
1685921022412043500,5.41604345703125,3.930119514465332,2.7095720767974854,2.0970211029052734
1685921022421804000,5.425803955078125,3.441671371459961,1.6118844747543335,1.6893938779830933
1685921022431565600,5.435565673828125,2.909809112548828,0.5383642315864563,0.982793927192688
1685921022441326000,5.445326171875,2.473134994506836,-0.40023255348205566,0.24341219663619995
1685921022451085800,5.4550859375,1.9593143463134766,-1.2462410926818848,-0.4223538637161255
1685921022460846600,5.4648466796875,1.2777900695800781,-1.9865607023239136,-0.9616634845733643
1685921022470608000,5.47460791015625,0.49608421325683594,-2.551304817199707,-1.5673576593399048
1685921022480368600,5.48436865234375,-0.2825918197631836,-2.9973349571228027,-1.9623013734817505
1685921022490128400,5.49412841796875,-0.979156494140625,-3.2826671600341797,-2.225213050842285
1685921022499889000,5.503888916015625,-1.770176887512207,-3.3912839889526367,-2.188854694366455
1685921022509650400,5.513650390625,-2.478405475616455,-3.414763927459717,-2.002575159072876
1685921022519411000,5.523410888671875,-3.2687573432922363,-3.345670461654663,-1.7453269958496094
1685921022529170700,5.533170654296875,-4.083892345428467,-3.2938761711120605,-1.5049296617507935
1685921022538931500,5.542931396484375,-4.654842376708984,-3.3189399242401123,-1.2962580919265747
1685921022548692700,5.552692626953125,-4.92144775390625,-3.3314881324768066,-1.076404333114624
1685921022558453500,5.56245361328125,-4.9336137771606445,-3.4331717491149902,-0.8973551988601685
1685921022568213200,5.572213134765625,-4.640791893005371,-3.5580363273620605,-0.7510042190551758
1685921022577973800,5.581973876953125,-4.176076889038086,-3.6549813747406006,-0.6731929779052734
1685921022587735300,5.5917353515625,-3.4164562225341797,-3.6091978549957275,-0.4099966287612915
1685921022597495800,5.601495849609375,-2.4773612022399902,-3.495199680328369,-0.07073783874511719
1685921022607255600,5.611255615234375,-1.683072566986084,-3.2469794750213623,0.34367096424102783
1685921022617016300,5.621016357421875,-1.0532188415527344,-2.8846323490142822,0.6780811548233032
1685921022626777600,5.630777587890625,-0.6408939361572266,-2.471343994140625,0.8475735187530518
1685921022636538000,5.6405380859375,-0.45407867431640625,-2.130931854248047,0.8666558265686035
1685921022646298000,5.650298095703125,-0.3866291046142578,-1.8374590873718262,0.7908837795257568
1685921022656058600,5.66005859375,-0.1062021255493164,-1.6228612661361694,0.673321008682251
1685921022665820200,5.669820068359375,0.30555248260498047,-1.5035858154296875,0.5234894752502441
1685921022675580700,5.67958056640625,0.8605365753173828,-1.6293020248413086,0.46669697761535645
1685921022685340400,5.68934033203125,1.1529674530029297,-1.7792340517044067,0.42196840047836304
1685921022695101200,5.69910107421875,1.2101259231567383,-1.752555251121521,0.4349544644355774
1685921022704862500,5.708862548828125,1.0157766342163086,-1.5385022163391113,0.536852240562439
1685921022714623000,5.718623046875,0.5771770477294922,-1.0173544883728027,0.9333826899528503
1685921022724383000,5.728383056640625,0.056496620178222656,-0.23093612492084503,1.4930717945098877
1685921022734143500,5.7381435546875,-0.3175830841064453,0.5639620423316956,2.1119062900543213
1685921022743904800,5.74790478515625,-0.7844619750976562,1.2890236377716064,2.6298041343688965
1685921022753665500,5.75766552734375,-1.3961153030395508,1.7823255062103271,2.8216402530670166
1685921022763425300,5.76742529296875,-1.937035083770752,2.000910997390747,2.615938663482666
1685921022773186000,5.77718603515625,-2.326259136199951,1.968618392944336,2.3011441230773926
1685921022782947300,5.786947265625,-2.175014019012451,1.7286063432693481,1.889912486076355
1685921022792707800,5.796707763671875,-1.5848894119262695,1.4783780574798584,1.578002691268921
1685921022802467800,5.8064677734375,-0.9984941482543945,1.331295371055603,1.241550326347351
1685921022812228400,5.816228271484375,-0.4729166030883789,1.2361202239990234,0.8996527791023254
1685921022821989600,5.82598974609375,0.0062999725341796875,1.0103964805603027,0.5312039852142334
1685921022831750400,5.83575048828125,0.4057731628417969,0.8103770017623901,0.22219276428222656
1685921022841510100,5.84551025390625,0.6802635192871094,0.784589409828186,0.0009353756904602051
1685921022851270700,5.855270751953125,0.8633909225463867,0.7512533068656921,-0.18547552824020386
1685921022861032200,5.8650322265625,0.8693666458129883,0.7269663214683533,-0.2452470064163208
1685921022870792700,5.874792724609375,0.8610401153564453,0.5889860391616821,-0.33959442377090454
1685921022880552700,5.884552734375,0.9865427017211914,0.4968714118003845,-0.35957416892051697
1685921022890313200,5.894313232421875,1.056899070739746,0.5475505590438843,-0.2114017903804779
1685921022900074500,5.904074462890625,1.752878189086914,0.4141368269920349,-0.3888872563838959
1685921022909835300,5.913835205078125,1.654799461364746,-0.09821543097496033,0.23714691400527954
1685921022919595000,5.923594970703125,1.6822586059570312,1.5546592473983765,0.8923929929733276
1685921022929355500,5.93335546875,1.2776145935058594,2.107435703277588,1.4529688358306885
1685921022939117000,5.943116943359375,0.7444677352905273,2.290212869644165,1.7353349924087524
1685921022948877600,5.952877685546875,1.1788368225097656,2.5159521102905273,1.7373322248458862
1685921022958637600,5.962637451171875,2.1633358001708984,2.2712011337280273,1.676916480064392
1685921022968398000,5.972398193359375,1.6367197036743164,1.8245644569396973,1.7500892877578735
1685921022978159400,5.982159423828125,1.7660961151123047,1.757703423500061,1.284157395362854
1685921022987920100,5.991920166015625,1.6752166748046875,1.347115159034729,1.2156590223312378
1685921022997679900,6.001679931640625,1.6728296279907227,1.1253618001937866,1.1212321519851685
1685921023007440400,6.0114404296875,1.3148002624511719,0.6096282601356506,0.8567885160446167
1685921023017202000,6.021201904296875,1.070204734802246,-0.005179028958082199,0.8080226182937622
1685921023026962400,6.03096240234375,0.4683418273925781,-0.6629376411437988,0.8907454013824463
1685921023036722200,6.04072216796875,-0.3847484588623047,-1.0268489122390747,0.8746614456176758
1685921023046483000,6.05048291015625,-0.9441423416137695,-1.3864803314208984,0.7477722764015198
1685921023056244200,6.060244140625,-0.9148035049438477,-1.56670081615448,0.85390704870224
1685921023066005000,6.0700048828125,-0.3701000213623047,-1.7044734954833984,0.7206882834434509
1685921023075764700,6.0797646484375,0.7937240600585938,-1.6886309385299683,0.20636966824531555
1685921023085525200,6.089525146484375,2.374856948852539,-1.784271001815796,-0.3267793655395508
1685921023095286800,6.099286865234375,3.840108871459961,-1.8030662536621094,-1.032545804977417
1685921023105047300,6.10904736328125,5.006021499633789,-1.858363151550293,-1.8803156614303589
1685921023114807000,6.11880712890625,5.163865089416504,-2.2730770111083984,-2.5810132026672363
1685921023124567800,6.12856787109375,4.394761085510254,-2.653090000152588,-2.8265743255615234
1685921023134329000,6.1383291015625,2.8470382690429688,-2.8941664695739746,-2.61514949798584
1685921023144089900,6.14808984375,0.8103408813476562,-2.8859775066375732,-2.0609607696533203
1685921023153849600,6.157849609375,-1.2088842391967773,-2.733461618423462,-1.38047194480896
1685921023163610000,6.167610107421875,-3.083522319793701,-2.588144302368164,-0.7967399954795837
1685921023173371600,6.17737158203125,-4.544737815856934,-2.2183191776275635,-0.05805957317352295
1685921023183132200,6.187132080078125,-5.311841011047363,-1.73211669921875,0.7294344902038574
1685921023192892000,6.196891845703125,-5.351984977722168,-0.9699051380157471,1.5115305185317993
1685921023202652700,6.206652587890625,-4.858550071716309,0.13907310366630554,2.1263341903686523
1685921023212414000,6.2164140625,-3.749941825866699,1.0046930313110352,2.3258867263793945
1685921023222174500,6.226174560546875,-2.097672939300537,1.5947201251983643,2.449143409729004
1685921023231934500,6.2359345703125,-0.42074012756347656,2.004577875137329,2.3577213287353516
1685921023241695000,6.245695068359375,1.324448585510254,2.4645285606384277,2.2392725944519043
1685921023251456500,6.25545654296875,2.92471981048584,2.6292996406555176,2.0164384841918945
1685921023261217000,6.265217041015625,4.132577896118164,2.6398353576660156,1.6406407356262207
1685921023270976800,6.274976806640625,4.774116516113281,2.6630914211273193,1.313524603843689
1685921023280737500,6.284737548828125,4.795041084289551,2.4689433574676514,1.0660409927368164
1685921023290498800,6.294498779296875,4.143896102905273,2.2000555992126465,0.7340876460075378
1685921023300259300,6.30425927734375,2.800784111022949,1.8677477836608887,0.4077562093734741
1685921023310019300,6.314019287109375,1.3932504653930664,1.300122618675232,0.008117139339447021
1685921023319779800,6.32377978515625,-0.07851314544677734,0.5712365508079529,-0.2740982174873352
1685921023329541000,6.333541015625,-1.2705869674682617,-0.2502058148384094,-0.6411836743354797
1685921023339302000,6.343302001953125,-2.1075692176818848,-0.8825111985206604,-0.9716619253158569
1685921023349061600,6.3530615234375,-2.7986841201782227,-1.4768757820129395,-1.076865315437317
1685921023358822400,6.362822509765625,-3.1921439170837402,-1.9116084575653076,-1.178431749343872
1685921023368583700,6.372583740234375,-3.3229098320007324,-2.1709725856781006,-1.1157805919647217
1685921023378344200,6.38234423828125,-3.359391689300537,-2.422957420349121,-1.087670922279358
1685921023388104200,6.392104248046875,-3.323668956756592,-2.5454065799713135,-0.9540640115737915
1685921023397864700,6.40186474609375,-3.1945934295654297,-2.54036808013916,-0.8730846643447876
1685921023407626000,6.4116259765625,-2.9722352027893066,-2.554208517074585,-0.737687349319458
1685921023417386800,6.42138671875,-2.816434383392334,-2.4171411991119385,-0.5925582647323608
1685921023427146500,6.431146484375,-2.6047511100769043,-2.156467914581299,-0.42651891708374023
1685921023436907000,6.440906982421875,-2.384676456451416,-1.837602138519287,-0.2360401153564453
1685921023446668500,6.45066845703125,-2.2155961990356445,-1.5811071395874023,-0.16126859188079834
1685921023456429000,6.460428955078125,-2.11381196975708,-1.4075157642364502,-0.19416046142578125
1685921023466189000,6.47018896484375,-1.966834545135498,-1.1838476657867432,-0.27572381496429443
1685921023475949600,6.479949462890625,-1.7294960021972656,-0.931267261505127,-0.27292799949645996
1685921023485711000,6.489711181640625,-1.3375654220581055,-0.6318782567977905,-0.24422210454940796
1685921023495471600,6.4994716796875,-1.0517339706420898,-0.25435447692871094,-0.12165379524230957
1685921023505231400,6.5092314453125,-0.72607421875,0.19585415720939636,0.04261499643325806
1685921023514991900,6.518991943359375,-0.39408397674560547,0.6368460655212402,0.127741277217865
1685921023524753400,6.52875341796875,-0.06048774719238281,1.0653975009918213,0.2459551990032196
1685921023534514000,6.538513916015625,0.3535470962524414,1.5691497325897217,0.4463038444519043
1685921023544274000,6.54827392578125,0.8359861373901367,1.9455134868621826,0.7168831825256348
1685921023554034400,6.558034423828125,1.3200340270996094,2.122837543487549,0.9769351482391357
1685921023563795700,6.567795654296875,1.5647411346435547,2.253009796142578,1.0047062635421753
1685921023573556500,6.577556396484375,1.5397253036499023,2.248467206954956,0.8463554382324219
1685921023583316200,6.587316162109375,1.3744678497314453,2.1387784481048584,0.5590181946754456
1685921023593077000,6.597076904296875,1.4034309387207031,1.93623685836792,0.24273855984210968
1685921023602838300,6.60683837890625,1.5853567123413086,1.8474395275115967,0.1507880985736847
1685921023612598800,6.616598876953125,2.055929183959961,1.8546762466430664,0.05498570203781128
1685921023622358800,6.62635888671875,2.470578193664551,2.0639054775238037,0.13871970772743225
1685921023632119300,6.636119384765625,2.8318538665771484,2.3750247955322266,0.5157323479652405
1685921023641880600,6.645880615234375,3.268887519836426,2.7208292484283447,1.4154545068740845
1685921023651641300,6.655641357421875,2.933786392211914,2.589430332183838,1.782795786857605
1685921023661401000,6.665401123046875,2.2152748107910156,2.446817398071289,1.1070715188980103
1685921023671161600,6.67516162109375,2.3321657180786133,2.2669997215270996,0.7210267782211304
1685921023680923100,6.684923095703125,3.2585315704345703,1.7073251008987427,0.837174117565155
1685921023690683600,6.69468359375,3.920055389404297,0.905467689037323,0.6598320007324219
1685921023700443600,6.704443603515625,4.188237190246582,0.14371660351753235,0.24664178490638733
1685921023710204200,6.7142041015625,4.113957405090332,-0.6374520659446716,-0.17989054322242737
1685921023719965400,6.72396533203125,3.8339614868164062,-1.2742952108383179,-0.5111622214317322
1685921023729726200,6.733726318359375,3.064359664916992,-1.7322136163711548,-0.8296778798103333
1685921023739486000,6.74348583984375,1.8708839416503906,-1.9243242740631104,-1.2590389251708984
1685921023749246500,6.75324658203125,0.46050167083740234,-1.8246631622314453,-1.459811806678772
1685921023759008000,6.763008056640625,-0.7069835662841797,-1.5959464311599731,-1.5021460056304932
1685921023768768500,6.7727685546875,-1.657975196838379,-1.4431604146957397,-1.5656487941741943
1685921023778528300,6.7825283203125,-2.421567440032959,-1.4280613660812378,-1.648206114768982
1685921023788289000,6.7922890625,-2.821707248687744,-1.7959880828857422,-1.676988124847412
1685921023798050300,6.80205029296875,-3.0482959747314453,-2.4578609466552734,-1.7763328552246094
1685921023807811000,6.81181103515625,-3.283480167388916,-3.0710654258728027,-1.8706718683242798
1685921023817570800,6.82157080078125,-3.4056296348571777,-3.46482253074646,-1.9496017694473267
1685921023827331300,6.831331298828125,-3.2457218170166016,-3.6552257537841797,-1.9118716716766357
1685921023837092900,6.8410927734375,-2.990917205810547,-3.779026508331299,-1.7656679153442383
1685921023846853400,6.850853271484375,-2.6560182571411133,-3.8161778450012207,-1.5234804153442383
1685921023856613400,6.86061328125,-2.3895630836486816,-3.747352361679077,-1.2289074659347534
1685921023866374000,6.870373779296875,-2.2895679473876953,-3.499969720840454,-0.9584311842918396
1685921023876135200,6.88013525390625,-1.9810199737548828,-3.1391916275024414,-0.648655354976654
1685921023885896000,6.88989599609375,-1.7678990364074707,-2.803652763366699,-0.29493868350982666
1685921023895655700,6.89965576171875,-1.372720718383789,-2.4660706520080566,0.0055945515632629395
1685921023905416200,6.909416259765625,-0.8622846603393555,-2.1681792736053467,0.14950081706047058
1685921023915177700,6.919177734375,-0.32939720153808594,-1.9712872505187988,0.20242127776145935
1685921023924938200,6.928938232421875,0.23839282989501953,-1.7796934843063354,0.14528870582580566
1685921023934698200,6.9386982421875,0.7983522415161133,-1.7549371719360352,0.14000347256660461
1685921023944458800,6.948458740234375,1.288559913635254,-1.8200381994247437,0.09048773348331451
1685921023954220000,6.958219970703125,1.635136604309082,-1.7913926839828491,0.0732165277004242
1685921023963980800,6.967980712890625,1.8669309616088867,-1.794891119003296,0.16957077383995056
1685921023973740500,6.977740478515625,1.8670120239257812,-1.7166359424591064,0.3265913128852844
1685921023983501000,6.9875009765625,1.4591073989868164,-1.5847198963165283,0.580902099609375
1685921023993262600,6.9972626953125,0.6704368591308594,-1.3220874071121216,0.7503480911254883
1685921024003023000,7.007023193359375,-0.2401561737060547,-1.012261986732483,0.96979820728302
1685921024012782800,7.016782958984375,-1.0336189270019531,-0.7146549224853516,1.1635470390319824
1685921024022543600,7.026543701171875,-1.6721878051757812,-0.33989274501800537,1.5241360664367676
1685921024032305000,7.036304931640625,-2.1182284355163574,0.17583796381950378,1.9046748876571655
1685921024042065700,7.046065673828125,-2.4512219429016113,0.764663815498352,2.2247397899627686
1685921024051825400,7.055825439453125,-2.7408695220947266,1.330761432647705,2.488651990890503
1685921024061586000,7.0655859375,-2.8082079887390137,1.8303873538970947,2.5932719707489014
1685921024071347500,7.075347412109375,-2.63944149017334,2.062107563018799,2.515209913253784
1685921024081108000,7.08510791015625,-2.2780203819274902,2.1254498958587646,2.3571245670318604
1685921024090868000,7.094867919921875,-1.7624077796936035,1.915976881980896,1.9948006868362427
1685921024100628500,7.10462841796875,-1.126164436340332,1.636796474456787,1.614288330078125
1685921024110389800,7.1143896484375,-0.47211170196533203,1.4183382987976074,1.225156307220459
1685921024120150500,7.124150634765625,0.0660543441772461,1.323998212814331,0.8898783922195435
1685921024129910300,7.13391015625,0.47667694091796875,1.1893112659454346,0.5271905660629272
1685921024139670800,7.1436708984375,0.7408981323242188,0.9695656299591064,0.18051940202713013
1685921024149432300,7.153432373046875,1.1503238677978516,0.6633879542350769,-0.13375473022460938
1685921024159192800,7.16319287109375,1.4393959045410156,0.3635929226875305,-0.4044632315635681
1685921024168952800,7.172952880859375,1.5724716186523438,0.13219761848449707,-0.6779344081878662
1685921024178713300,7.18271337890625,1.5593996047973633,-0.0696432888507843,-0.9183604717254639
1685921024188474600,7.192474609375,1.4626045227050781,-0.1475934386253357,-0.9769836664199829
1685921024198235400,7.2022353515625,1.2154130935668945,-0.2061055302619934,-0.9688165783882141
1685921024207995100,7.2119951171875,1.0068769454956055,-0.09861961007118225,-0.847267210483551
1685921024217756000,7.221755859375,0.7199277877807617,0.175603449344635,-0.6393078565597534
1685921024227517200,7.23151708984375,0.5745067596435547,0.35402631759643555,-0.4237450659275055
1685921024237277700,7.241277587890625,0.4222526550292969,0.526053249835968,-0.32422593235969543
1685921024247037700,7.25103759765625,0.3922119140625,0.5955194234848022,-0.18335740268230438
1685921024256798200,7.260798095703125,0.4244394302368164,0.6480021476745605,-0.19491153955459595
1685921024266559500,7.2705595703125,0.6429901123046875,0.6466259360313416,-0.09200675785541534
1685921024276320300,7.2803203125,0.8276910781860352,0.7586122155189514,0.1090807169675827
1685921024286080000,7.290080078125,0.9236812591552734,0.903858482837677,0.34216636419296265
1685921024295840500,7.299840576171875,1.074472427368164,0.9705742001533508,0.5897253751754761
1685921024305602000,7.30960205078125,1.0793514251708984,0.8653172254562378,0.8492932915687561
1685921024315362600,7.319362548828125,0.8861627578735352,0.6698773503303528,1.145283579826355
1685921024325122600,7.32912255859375,0.4739036560058594,0.4158082604408264,1.3787014484405518
1685921024334883000,7.338883056640625,0.04617500305175781,0.3034777343273163,1.248908519744873
1685921024344644400,7.348644287109375,0.11911678314208984,0.12088862806558609,1.147916316986084
1685921024354405000,7.358405029296875,0.9116296768188477,-0.03247045353055,0.9266757965087891
1685921024364164900,7.368164794921875,2.1501216888427734,-0.18492531776428223,0.5477794408798218
1685921024373925600,7.377925537109375,3.152827262878418,-0.3085383176803589,-0.08669352531433105
1685921024383687000,7.38768701171875,4.206332206726074,-0.533297061920166,-1.009191870689392
1685921024393447400,7.397447509765625,5.027674674987793,-1.0698565244674683,-1.8871057033538818
1685921024403207400,7.40720751953125,5.240696907043457,-1.860802173614502,-2.622269630432129
1685921024412968000,7.416968017578125,4.41519832611084,-2.7507402896881104,-3.1712727546691895
1685921024422729500,7.4267294921875,2.732118606567383,-3.325314998626709,-3.3641715049743652
1685921024432490000,7.436489990234375,0.46492767333984375,-3.360781669616699,-3.14743709564209
1685921024442249700,7.446249755859375,-1.6892261505126953,-3.126270055770874,-2.7767839431762695
1685921024452010200,7.45601025390625,-3.536736488342285,-2.857503652572632,-2.2714881896972656
1685921024461771800,7.465771728515625,-5.058080673217773,-2.4491467475891113,-1.914405107498169
1685921024471532300,7.4755322265625,-5.987354755401611,-1.9303841590881348,-1.5535401105880737
1685921024481292300,7.485292236328125,-6.163533687591553,-1.3811274766921997,-0.9266827702522278
1685921024491052800,7.495052734375,-5.4141364097595215,-0.6764088273048401,-0.3024398386478424
1685921024500814300,7.504814453125,-4.0049214363098145,-0.07572426646947861,0.28024402260780334
1685921024510574800,7.514574951171875,-2.201314926147461,0.30927467346191406,0.6872438192367554
1685921024520334600,7.52433447265625,-0.6086359024047852,0.5085513591766357,1.0129334926605225
1685921024530095400,7.534095458984375,0.9781579971313477,0.7321794033050537,0.9434524774551392
1685921024539856600,7.543856689453125,2.3799238204956055,1.0358185768127441,0.7708286643028259
1685921024549617400,7.553617431640625,3.621837615966797,1.300443410873413,0.6451231241226196
1685921024559377200,7.563377197265625,4.6019487380981445,1.6973954439163208,0.6222068071365356
1685921024569137700,7.5731376953125,5.231087684631348,2.042506694793701,0.833331286907196
1685921024578899200,7.582899169921875,5.24223518371582,2.231799840927124,1.009490728378296
1685921024588659700,7.59265966796875,4.341364860534668,2.2571232318878174,0.894355833530426
1685921024598419500,7.60241943359375,2.87103271484375,1.908450961112976,0.5679469108581543
1685921024608180200,7.61218017578125,1.1993322372436523,1.2267580032348633,0.10365578532218933
1685921024617941500,7.62194140625,-0.25926971435546875,0.5269322395324707,-0.37259405851364136
1685921024627702000,7.631701904296875,-1.4597063064575195,-0.08497518301010132,-0.7782105207443237
1685921024637462000,7.6414619140625,-2.3406996726989746,-0.7514153718948364,-1.1141018867492676
1685921024647222500,7.651222412109375,-2.9488534927368164,-1.2664783000946045,-1.3076282739639282
1685921024656984000,7.660984130859375,-3.1778554916381836,-1.6306233406066895,-1.4845317602157593
1685921024666744600,7.67074462890625,-3.327507972717285,-2.119734287261963,-1.5905506610870361
1685921024676504300,7.68050439453125,-3.4101996421813965,-2.50380277633667,-1.756187081336975
1685921024686265000,7.69026513671875,-3.354660987854004,-2.7087459564208984,-1.8335864543914795
1685921024696026400,7.7000263671875,-3.1351237297058105,-2.892394781112671,-1.8395588397979736
1685921024705787100,7.709787109375,-2.8809866905212402,-2.968857526779175,-1.820540428161621
1685921024715547000,7.719546875,-2.5349526405334473,-3.0569534301757812,-1.8083441257476807
1685921024725307400,7.729307373046875,-2.1998376846313477,-3.075796365737915,-1.6999483108520508
1685921024735069000,7.73906884765625,-1.815788745880127,-3.0039169788360596,-1.5836491584777832
1685921024744829400,7.748829345703125,-1.5953149795532227,-2.943939685821533,-1.4746582508087158
1685921024754589200,7.758589111328125,-1.408956527709961,-2.809016227722168,-1.2783987522125244
1685921024764350000,7.768349853515625,-1.139596939086914,-2.519484043121338,-1.0245412588119507
1685921024774111200,7.778111328125,-0.9211254119873047,-2.1497557163238525,-0.8039644956588745
1685921024783872000,7.7878720703125,-0.7413673400878906,-1.736878514289856,-0.5577791333198547
1685921024793631700,7.7976318359375,-0.45677661895751953,-1.247051477432251,-0.23075219988822937
1685921024803392300,7.807392333984375,-0.09605598449707031,-0.6972527503967285,0.12929296493530273
1685921024813153800,7.81715380859375,0.2930641174316406,-0.26946574449539185,0.4894678592681885
1685921024822914300,7.826914306640625,0.4884967803955078,0.07335725426673889,0.6793473362922668
1685921024832674000,7.836674072265625,0.6075763702392578,0.37318557500839233,0.7641317844390869
1685921024842434800,7.846434814453125,0.6764507293701172,0.6380687952041626,0.8908816576004028
1685921024852196000,7.856196044921875,0.8143062591552734,0.8447192907333374,0.9622968435287476
1685921024861956900,7.865956787109375,0.8391647338867188,1.0881211757659912,1.017143964767456
1685921024871716600,7.875716552734375,0.8896818161010742,1.3207824230194092,0.9792784452438354
1685921024881477000,7.88547705078125,0.9491901397705078,1.5703147649765015,0.9437209367752075
1685921024891238700,7.89523876953125,1.1181888580322266,1.8626477718353271,0.9954169988632202
1685921024900995600,7.90499560546875,1.200815200805664,2.255938768386841,1.0928674936294556
1685921024910755600,7.914755615234375,1.178375244140625,2.674318313598633,1.1595418453216553
1685921024920516000,7.92451611328125,1.189805030822754,3.06984806060791,1.2072219848632812
1685921024930277400,7.93427734375,1.1227998733520508,3.4037888050079346,1.2287334203720093
1685921024940038100,7.9440380859375,0.9821815490722656,3.4675495624542236,1.081373691558838
1685921024949798000,7.9537978515625,0.6891279220581055,3.0783090591430664,0.7614951133728027
1685921024959558400,7.963558349609375,0.4276742935180664,2.608830213546753,0.28645819425582886
1685921024969320000,7.97331982421875,0.3503894805908203,2.3308231830596924,-0.18935394287109375
1685921024979080400,7.98308056640625,0.3875885009765625,2.2170634269714355,-0.5318613052368164
1685921024988840400,7.99284033203125,0.5343952178955078,2.262000322341919,-0.8071302771568298
1685921024998601000,8.00260107421875,1.2015361785888672,2.5123744010925293,-0.5428599119186401
1685921025008362500,8.012362548828126,1.5852603912353516,2.0666897296905518,0.1461009979248047
1685921025018123000,8.022123046875,1.0220375061035156,1.469333291053772,-0.15901070833206177
1685921025027882800,8.0318828125,0.7437944412231445,1.2024452686309814,-0.8333253860473633
1685921025037643500,8.0416435546875,1.0028047561645508,0.3154478073120117,-1.193835973739624
1685921025047404800,8.05140478515625,1.6236333847045898,-0.431871235370636,-1.6330994367599487
1685921025057165600,8.06116552734375,2.472198486328125,-1.0992153882980347,-2.0776219367980957
1685921025066925300,8.07092529296875,3.4624786376953125,-1.7332664728164673,-2.2905194759368896
1685921025076685800,8.080685791015625,4.269661903381348,-2.2011334896087646,-2.322680711746216
1685921025086447400,8.090447265625,4.57414436340332,-2.5889906883239746,-2.493572235107422
1685921025096208000,8.100207763671875,4.181087493896484,-2.898851156234741,-2.7024929523468018
1685921025105967600,8.109967529296876,3.244894027709961,-2.995600461959839,-2.67475962638855
1685921025115728400,8.119728271484375,2.0917444229125977,-2.8590872287750244,-2.4510209560394287
1685921025125489700,8.12948974609375,0.7988014221191406,-2.8277053833007812,-2.0994598865509033
1685921025135250400,8.13925048828125,-0.6976728439331055,-2.9049558639526367,-1.8215796947479248
1685921025145010200,8.14901025390625,-2.346409320831299,-3.082831859588623,-1.622577428817749
1685921025154770700,8.158770751953124,-3.8026461601257324,-3.1576802730560303,-1.426628589630127
1685921025164532200,8.1685322265625,-4.9212751388549805,-3.1956260204315186,-1.331372618675232
1685921025174292700,8.178292724609374,-5.565568923950195,-3.1482155323028564,-1.147698998451233
1685921025184052500,8.188052490234375,-5.62135124206543,-3.0952844619750977,-1.0572052001953125
1685921025193813200,8.197813232421876,-5.206663131713867,-3.1451706886291504,-0.9170653223991394
1685921025203574500,8.207574462890625,-4.402990341186523,-3.299264430999756,-0.7560154795646667
1685921025213335300,8.217335205078125,-3.3502254486083984,-3.377812147140503,-0.49438124895095825
1685921025223095000,8.227094970703124,-2.3061537742614746,-3.2558863162994385,-0.13595712184906006
1685921025232855600,8.23685546875,-1.393625259399414,-3.0105767250061035,0.16768062114715576
1685921025242617000,8.2466171875,-0.6012687683105469,-2.7804672718048096,0.398024320602417
1685921025252377600,8.256377685546875,0.06302738189697266,-2.494741439819336,0.6616114974021912
1685921025262137600,8.2661376953125,0.8370094299316406,-2.2414376735687256,0.8558560609817505
1685921025271898000,8.275898193359374,1.3936548233032227,-1.8465416431427002,0.9985069036483765
1685921025281659400,8.285659423828125,1.8217544555664062,-1.4866993427276611,1.1032514572143555
1685921025291420200,8.295420166015624,1.9229259490966797,-1.169679045677185,1.0846635103225708
1685921025301180000,8.305179931640625,1.7548723220825195,-1.0365910530090332,0.988222599029541
1685921025310940700,8.314940673828126,1.134317398071289,-0.9078487753868103,0.8203390836715698
1685921025320702000,8.324701904296875,0.42321014404296875,-0.9235171675682068,0.659469723701477
1685921025330462500,8.33446240234375,-0.2609291076660156,-1.0792263746261597,0.530908465385437
1685921025340222500,8.344222412109374,-0.8346128463745117,-1.1110795736312866,0.40308481454849243
1685921025349983000,8.35398291015625,-1.2340383529663086,-1.1524991989135742,0.21987611055374146
1685921025359744300,8.363744140625,-1.6082773208618164,-1.2092459201812744,0.442806214094162
1685921025369505000,8.373505126953125,-1.7646794319152832,-1.1538994312286377,0.5375778079032898
1685921025379266000,8.38326611328125,-1.9027137756347656,-0.9485567212104797,0.7509422898292542
1685921025389026600,8.393026611328125,-1.9296250343322754,-0.7977538704872131,1.0773183107376099
1685921025398788000,8.4027880859375,-1.7407302856445312,-0.4771396517753601,1.3161115646362305
1685921025408548600,8.412548583984375,-1.2552738189697266,-0.18317408859729767,1.5163941383361816
1685921025418308400,8.422308349609375,-0.8293619155883789,-0.05553343892097473,1.6851823329925537
1685921025428069000,8.432069091796874,-0.49560546875,0.06069675087928772,1.7485411167144775
1685921025437830400,8.441830322265625,-0.10764217376708984,0.16016751527786255,1.8263951539993286
1685921025447591200,8.451591064453124,0.2772865295410156,0.31983721256256104,1.9476261138916016
1685921025457351000,8.461350830078125,0.5565662384033203,0.4624854326248169,1.9891899824142456
1685921025467111400,8.471111328125,0.7924442291259766,0.622197151184082,1.9143753051757812
1685921025476873000,8.480873046875,1.0970964431762695,0.7926809787750244,1.8352887630462646
1685921025486633500,8.490633544921875,1.472651481628418,0.855071485042572,1.8746933937072754
1685921025496393500,8.5003935546875,1.6873531341552734,0.8630965948104858,1.7931078672409058
1685921025506154000,8.510154052734375,1.8490800857543945,0.9038233757019043,1.7882673740386963
1685921025515915300,8.519915283203124,1.8767709732055664,1.0891395807266235,1.7726879119873047
1685921025525676000,8.529676025390625,1.8710079193115234,1.2796990871429443,1.855384349822998
1685921025535435800,8.539435791015626,1.913020133972168,1.6940937042236328,2.0582737922668457
1685921025545196300,8.5491962890625,1.9214906692504883,2.0054638385772705,2.269749879837036
1685921025554957800,8.558957763671875,1.8010711669921875,2.2370011806488037,2.377767324447632
1685921025564718300,8.56871826171875,1.5355291366577148,2.0320799350738525,2.1749114990234375
1685921025574478300,8.578478271484375,1.1993846893310547,1.62273371219635,1.7990344762802124
1685921025584238800,8.58823876953125,1.1009111404418945,1.156552791595459,1.3666740655899048
1685921025594000100,8.598000244140625,1.129556655883789,0.4995911121368408,1.1182212829589844
1685921025603761000,8.607760986328126,1.1438817977905273,0.030344532802700996,0.7297159433364868
1685921025613520600,8.617520751953125,0.9646015167236328,-0.2697698175907135,0.45505818724632263
1685921025623281200,8.62728125,0.6208057403564453,-0.5990169644355774,0.3279150724411011
1685921025633042700,8.637042724609374,0.172698974609375,-0.7551559805870056,0.2801207900047302
1685921025642803200,8.64680322265625,-0.2384023666381836,-0.752928614616394,0.16301515698432922
1685921025652563200,8.656563232421876,-0.12044811248779297,-0.6326603889465332,-0.04675056040287018
1685921025662323700,8.66632373046875,0.6925992965698242,-0.6146140694618225,-0.0563969761133194
1685921025672085200,8.676085205078126,1.4539413452148438,-0.7237450480461121,-0.11010107398033142
1685921025681845800,8.685845703125,2.068012237548828,-0.9933767318725586,-0.5844861268997192
1685921025691605500,8.69560546875,2.475132942199707,-1.4025187492370605,-1.1416689157485962
1685921025701366300,8.7053662109375,2.7398433685302734,-2.0103983879089355,-1.5884839296340942
1685921025711127600,8.71512744140625,2.730788230895996,-2.609947919845581,-2.0096168518066406
1685921025720888300,8.724888427734374,2.4556379318237305,-3.147557258605957,-2.302856922149658
1685921025730648000,8.73464794921875,1.7121620178222656,-3.477154016494751,-2.3776400089263916
1685921025740408600,8.74440869140625,0.6452960968017578,-3.339381456375122,-2.137834310531616
1685921025750170000,8.754170166015625,-0.4424562454223633,-2.973660469055176,-1.5886863470077515
1685921025759930600,8.7639306640625,-1.371354103088379,-2.6252846717834473,-0.9057143330574036
1685921025769690400,8.7736904296875,-2.4091391563415527,-2.39560866355896,-0.26601094007492065
1685921025779451100,8.783451171875,-3.173719882965088,-2.0980634689331055,0.3315337598323822
1685921025789212400,8.79321240234375,-3.6854028701782227,-1.7535959482192993,0.8576745986938477
1685921025798973200,8.80297314453125,-3.7996668815612793,-1.4371304512023926,1.5442346334457397
1685921025808733000,8.81273291015625,-3.6491098403930664,-1.157977819442749,2.117382764816284
1685921025818493400,8.822493408203124,-3.064645290374756,-0.8311549425125122,2.5838065147399902
1685921025828255000,8.8322548828125,-2.3214282989501953,-0.4184325337409973,2.8803679943084717
1685921025838015500,8.842015380859374,-1.392991065979004,0.028670132160186768,3.0550761222839355
1685921025847775200,8.851775146484375,-0.3177146911621094,0.3390216827392578,3.2467103004455566
1685921025857536000,8.861535888671876,0.9110269546508789,0.5721538066864014,3.337951421737671
1685921025867297300,8.87129736328125,2.1465835571289062,0.7519699335098267,3.2541794776916504
1685921025877058000,8.88105810546875,3.0585832595825195,0.7528025507926941,2.9773526191711426
1685921025886817800,8.89081787109375,3.5682668685913086,0.783673107624054,2.5276970863342285
1685921025896578300,8.900578369140625,3.626199722290039,0.7561591863632202,2.014493942260742
1685921025906339800,8.91033984375,3.0163869857788086,0.7581889629364014,1.5759007930755615
1685921025916100400,8.920100341796875,2.0898447036743164,0.4900548458099365,1.1008968353271484
1685921025925860400,8.9298603515625,0.9937267303466797,0.09330287575721741,0.6600159406661987
1685921025935620900,8.939620849609375,-0.060898780822753906,-0.26756787300109863,0.2540130913257599
1685921025945382100,8.949382080078125,-0.954524040222168,-0.5782310962677002,-0.18690314888954163
1685921025955143000,8.959142822265624,-1.7210731506347656,-0.841817319393158,-0.5710223913192749
1685921025964902700,8.968902587890625,-2.177225112915039,-1.1251150369644165,-0.9271915555000305
1685921025974663400,8.978663330078126,-2.4768505096435547,-1.3871515989303589,-1.1353325843811035
1685921025984424700,8.9884248046875,-2.6229968070983887,-1.566176176071167,-1.3016386032104492
1685921025994185200,8.998185302734376,-2.620939254760742,-1.7060956954956055,-1.4707996845245361
1685921026003945200,9.0079453125,-2.4519896507263184,-1.8421087265014648,-1.510141134262085
1685921026013705700,9.017705810546875,-2.3051910400390625,-1.9483891725540161,-1.506729245185852
1685921026023467300,9.02746728515625,-2.1135659217834473,-1.877359390258789,-1.4301259517669678
1685921026033227800,9.037227783203125,-1.9989380836486816,-1.7829108238220215,-1.299849510192871
1685921026042987500,9.046987548828126,-1.9204740524291992,-1.504483699798584,-1.1067544221878052
1685921026052748300,9.056748291015625,-1.7419538497924805,-1.1576120853424072,-0.8711777925491333
1685921026062509600,9.066509521484376,-1.4444656372070312,-0.8166518211364746,-0.6076726913452148
1685921026072270300,9.076270263671875,-1.302851676940918,-0.37104907631874084,-0.38598233461380005
1685921026082030000,9.086030029296875,-1.0873842239379883,0.005859971046447754,-0.20074570178985596
1685921026091790600,9.09579052734375,-0.8722591400146484,0.3664383590221405,0.07707792520523071
1685921026101552000,9.10555224609375,-0.6144771575927734,0.7119258642196655,0.30216413736343384
1685921026111312600,9.115312744140626,-0.35715389251708984,1.0212091207504272,0.501856803894043
1685921026121072600,9.12507275390625,-0.08604907989501953,1.131703495979309,0.6734006404876709
1685921026130833200,9.134833251953125,0.052947998046875,1.2035861015319824,0.7428460121154785
1685921026140594400,9.144594482421875,0.23425960540771484,1.244593620300293,0.6716444492340088
1685921026150355200,9.154355224609375,0.31429386138916016,1.2870608568191528,0.4557282030582428
1685921026160115000,9.164114990234374,0.3696870803833008,1.3406533002853394,0.3067045211791992
1685921026169875700,9.173875732421875,0.20242977142333984,1.4479972124099731,0.273597776889801
1685921026179637000,9.183636962890626,0.19544696807861328,1.5391160249710083,0.3122851848602295
1685921026189397500,9.1933974609375,0.3725461959838867,1.4067949056625366,0.27924907207489014
1685921026199157500,9.203157470703125,0.7907943725585938,0.9565038681030273,0.16384154558181763
1685921026208918000,9.21291796875,1.3471097946166992,0.10055194795131683,0.01601041480898857
1685921026218679600,9.222679443359375,2.027224540710449,-0.7549207806587219,-0.31985893845558167
1685921026228440000,9.232440185546874,2.5737953186035156,-0.8928015828132629,-1.474216103553772
1685921026238199800,9.24219970703125,1.6705322265625,-0.6353431940078735,-1.7510309219360352
1685921026247960600,9.251960693359376,0.1805400848388672,-0.475967139005661,-1.103426456451416
1685921026257721900,9.261721923828125,-0.7536306381225586,-0.2339702993631363,-0.6798193454742432
1685921026267482400,9.271482421875,-0.9975566864013672,0.43325117230415344,-0.5558117628097534
1685921026277242400,9.281242431640624,-2.033388137817383,0.12879440188407898,-0.16196751594543457
1685921026287003000,9.2910029296875,-2.01080322265625,0.23945751786231995,0.10026359558105469
1685921026296764400,9.300764404296874,-1.4930849075317383,0.2921261191368103,0.02437305450439453
1685921026306525000,9.31052490234375,-0.825505256652832,0.10846854001283646,0.09401237964630127
1685921026316284700,9.32028466796875,-0.44431495666503906,-0.07801574468612671,0.3144500255584717
1685921026326045400,9.33004541015625,0.024085044860839844,-0.12081930786371231,0.5006763935089111
1685921026335806700,9.339806640625,1.1521596908569336,0.10544193536043167,0.6891217231750488
1685921026345567500,9.3495673828125,2.6242313385009766,0.5317276120185852,0.7638136148452759
1685921026355327200,9.3593271484375,4.136282920837402,1.0003241300582886,1.0477794408798218
1685921026365087700,9.369087646484376,5.280176162719727,1.2344683408737183,1.5783802270889282
1685921026374849300,9.378849365234375,5.788887977600098,1.3678698539733887,1.970641851425171
1685921026384609800,9.38860986328125,5.449922561645508,1.5194370746612549,1.950695276260376
1685921026394369500,9.39836962890625,4.398933410644531,1.5584771633148193,1.8216925859451294
1685921026404130300,9.40813037109375,2.921222686767578,1.3866329193115234,1.6256765127182007
1685921026413891600,9.4178916015625,1.3658485412597656,1.1150506734848022,1.26810622215271
1685921026423652400,9.42765234375,0.08814334869384766,0.879192054271698,0.8554065227508545
1685921026433412000,9.437412109375,-0.7365350723266602,0.48512494564056396,0.4986133575439453
1685921026443172600,9.447172607421875,-1.1409025192260742,-0.010032124817371368,0.1920555830001831
1685921026452934100,9.45693408203125,-1.2315473556518555,-0.6963233947753906,-0.1704390048980713
1685921026462694700,9.466694580078125,-1.303156852722168,-1.2971841096878052,-0.5861808657646179
1685921026472454700,9.47645458984375,-1.4560155868530273,-1.8672245740890503,-1.022499918937683
1685921026482215200,9.486215087890624,-1.5201406478881836,-2.4103810787200928,-1.3490746021270752
1685921026491976700,9.495976806640625,-1.6554012298583984,-2.7478110790252686,-1.5849732160568237
1685921026501737200,9.5057373046875,-1.990236759185791,-2.8680801391601562,-1.6332578659057617
1685921026511497000,9.5154970703125,-2.521547317504883,-2.866922616958618,-1.4786033630371094
1685921026521257700,9.5252578125,-3.2106757164001465,-2.811836004257202,-1.3217413425445557
1685921026531019000,9.53501904296875,-3.6900711059570312,-2.7133309841156006,-1.10370934009552
1685921026540779800,9.54477978515625,-3.987468719482422,-2.660475254058838,-0.9416024684906006
1685921026550539500,9.55453955078125,-3.765183925628662,-2.748098850250244,-0.7051383256912231
1685921026560300000,9.564300048828125,-3.094327926635742,-2.920652389526367,-0.4846489429473877
1685921026570061600,9.5740615234375,-2.121565341949463,-2.8642075061798096,-0.2810106873512268
1685921026579822000,9.583822021484375,-1.1501693725585938,-2.6167385578155518,0.08452028036117554
1685921026589582000,9.59358203125,0.6995649337768555,-1.3162946701049805,-0.2737058401107788
1685921026599342600,9.603342529296874,-0.5309572219848633,-0.6853476762771606,1.4043837785720825
1685921026609104000,9.613103759765625,-0.1802234649658203,-0.2574894428253174,2.342621088027954
1685921026618864600,9.62286474609375,0.9248790740966797,0.4850037395954132,1.9694061279296875
1685921026628624400,9.632624267578125,1.7042083740234375,0.8459433317184448,1.451000690460205
1685921026638385000,9.642385009765626,2.3515939712524414,0.5163746476173401,1.1935116052627563
1685921026648146400,9.652146484375,2.808171272277832,-0.051806509494781494,0.8781080842018127
1685921026657907000,9.661906982421876,2.9407339096069336,-0.6306292414665222,0.4939895272254944
1685921026667667000,9.6716669921875,2.702322006225586,-1.1183055639266968,-0.11118322610855103
1685921026677427500,9.681427490234375,1.940903663635254,-1.3489136695861816,-0.6330138444900513
1685921026687189000,9.69118896484375,0.7817707061767578,-1.3821845054626465,-0.9179863929748535
1685921026696949500,9.700949462890625,-0.16572093963623047,-1.2236939668655396,-1.0178030729293823
1685921026706709200,9.710709228515626,-0.44935131072998047,-0.6336925029754639,-1.2222778797149658
1685921026716470000,9.720469970703125,-1.6239280700683594,-0.8488392233848572,-0.07974129915237427
1685921026726231300,9.730231201171875,-1.877819538116455,-0.6436814069747925,0.0013259649276733398
1685921026735991800,9.73999169921875,-1.9708528518676758,-0.22181245684623718,0.0790092945098877
1685921026745751800,9.749751708984375,-2.048285484313965,0.008146464824676514,0.3732278048992157
1685921026755512300,9.75951220703125,-1.9588170051574707,0.15820583701133728,0.5982042551040649
1685921026765273900,9.76927392578125,-1.7501568794250488,0.2905828654766083,0.8818874955177307
1685921026775034400,9.779034423828126,-1.3936262130737305,0.3353408873081207,1.091510534286499
1685921026784794000,9.788794189453125,-1.0757923126220703,0.4900149405002594,1.1786282062530518
1685921026794555000,9.798554931640625,-0.825347900390625,0.6058721542358398,1.0974857807159424
1685921026804316200,9.808316162109374,-0.5204534530639648,0.5751438140869141,0.926923394203186
1685921026814077000,9.818076904296875,-0.0490875244140625,0.5366886854171753,0.7821629047393799
1685921026823836700,9.827836669921876,0.1775665283203125,0.4483059048652649,0.6218283772468567
1685921026833597200,9.83759716796875,0.28208255767822266,0.4297926723957062,0.47914278507232666
1685921026843358700,9.847358642578126,0.5776004791259766,0.39528825879096985,0.3547917306423187
1685921026853119200,9.857119140625,0.7984619140625,0.37117713689804077,0.24214264750480652
1685921026862879000,9.86687890625,0.9089632034301758,0.4129943251609802,0.23605865240097046
1685921026872639700,9.8766396484375,0.9546365737915039,0.35416650772094727,0.1571914255619049
1685921026882401000,9.886401123046875,0.8543682098388672,0.3187936544418335,0.05913746356964111
1685921026892161800,9.896161865234374,0.7637472152709961,0.3360455632209778,-0.03053036332130432
1685921026901921500,9.905921630859375,0.783111572265625,0.2975313663482666,-0.04379928112030029
1685921026911682000,9.91568212890625,1.0483684539794922,0.23135298490524292,0.07991108298301697
1685921026921443600,9.925443603515625,1.2699928283691406,0.15430858731269836,0.27691736817359924
1685921026931204000,9.9352041015625,1.3072986602783203,0.14448410272598267,0.3689328134059906
1685921026940964000,9.944964111328124,1.1608572006225586,0.20633655786514282,0.41065019369125366
1685921026950724600,9.954724609375,0.9194965362548828,0.12529274821281433,0.44341474771499634
1685921026960486100,9.964486083984376,0.7386245727539062,0.08621254563331604,0.574114203453064
1685921026970246700,9.97424658203125,0.3672828674316406,0.0043357014656066895,0.7830173969268799
1685921026980006400,9.98400634765625,0.0016880035400390625,0.14046832919120789,0.9110252857208252
1685921026989767200,9.99376708984375,0.3125343322753906,0.2670170068740845,1.0736353397369385
1685921026999528400,10.003528564453125,1.2451820373535156,0.4127907156944275,1.3032138347625732
1685921027009289200,10.013289306640624,2.191514015197754,0.4634734094142914,1.5313119888305664
1685921027019049000,10.023049072265625,3.0086936950683594,0.40207478404045105,1.3297600746154785
1685921027028809500,10.0328095703125,3.7190208435058594,0.20530202984809875,0.8529922962188721
1685921027038571000,10.042571044921875,4.189427375793457,-0.18005254864692688,0.11752140522003174
1685921027048331500,10.05233154296875,4.349169731140137,-0.9224693179130554,-0.6628752946853638
1685921027058091300,10.06209130859375,3.979541778564453,-1.795363187789917,-1.4293867349624634
1685921027067852000,10.07185205078125,2.9460935592651367,-2.4923787117004395,-1.910853385925293
1685921027077613300,10.08161328125,1.358480453491211,-2.706791877746582,-2.310652494430542
1685921027087374000,10.0913740234375,-0.3756065368652344,-2.550401449203491,-2.1609718799591064
1685921027097133800,10.1011337890625,-1.7644453048706055,-2.172124147415161,-1.6613085269927979
1685921027106894300,10.110894287109375,-2.717191219329834,-1.7985801696777344,-1.0739294290542603
1685921027116655900,10.12065576171875,-3.3394775390625,-1.3328338861465454,-0.3556644916534424
1685921027126416400,10.13041650390625,-3.4141793251037598,-0.7896207571029663,0.47386670112609863
1685921027136176400,10.14017626953125,-3.1299691200256348,-0.20022931694984436,1.3672325611114502
1685921027145937000,10.14993701171875,-2.4755496978759766,0.24873806536197662,2.1074628829956055
1685921027155698400,10.159698486328125,-1.4604806900024414,0.48623156547546387,2.803330659866333
1685921027165459000,10.169458984375,-0.6569881439208984,0.6590542197227478,3.1265697479248047
1685921027175218700,10.17921875,-0.0625905990600586,0.6694682836532593,3.0853824615478516
1685921027184979500,10.1889794921875,0.4172954559326172,0.5287473797798157,2.8347434997558594
1685921027194740700,10.19874072265625,0.7071743011474609,0.3599749505519867,2.5523123741149902
1685921027204501500,10.20850146484375,0.8746213912963867,0.14657023549079895,2.1984076499938965
1685921027214261200,10.21826123046875,0.9057321548461914,-0.27838218212127686,1.815978765487671
1685921027224021800,10.228021728515625,0.8606128692626953,-0.6343783140182495,1.5328638553619385
1685921027233783300,10.237783203125,0.4075193405151367,-0.8328981399536133,1.2283309698104858
1685921027243543800,10.247543701171875,-0.26378726959228516,-0.5474581122398376,0.7558177709579468
1685921027253303600,10.257303466796875,-1.0759878158569336,-0.6647762656211853,0.35064423084259033
1685921027263064300,10.267064208984374,-2.9422192573547363,-0.8639627695083618,0.5700931549072266
1685921027272825600,10.27682568359375,-5.16560173034668,-0.37453559041023254,1.009771466255188
1685921027282586400,10.28658642578125,-6.118653297424316,-0.22006681561470032,0.3683561086654663
1685921027292346000,10.29634619140625,-7.543413162231445,0.503626823425293,0.8959801197052002
1685921027302106600,10.306106689453125,-8.461135864257812,1.223968744277954,1.5883872509002686
1685921027311868200,10.3158681640625,-8.242274284362793,1.4384312629699707,1.4888672828674316
1685921027321628700,10.325628662109375,-9.27025318145752,1.3526477813720703,1.8374826908111572
1685921027331388700,10.335388671875,-9.362642288208008,1.3886734247207642,1.807481288909912
1685921027341149200,10.345149169921875,-9.608352661132812,-0.29210203886032104,1.3605773448944092
1685921027350910700,10.35491064453125,-9.553566932678223,-0.3130533993244171,1.163953423500061
1685921027360671200,10.364671142578125,-9.541996002197266,-0.29326698184013367,0.9295312166213989
1685921027370431000,10.374430908203125,-9.501866340637207,-0.31941017508506775,0.7222058773040771
1685921027380191700,10.384191650390624,-9.454757690429688,-0.2884400188922882,0.5042213201522827
1685921027389953000,10.393953125,-9.458046913146973,-0.2819276452064514,0.289914071559906
1685921027399713800,10.4037138671875,-9.394633293151855,-0.27353906631469727,0.0863410234451294
1685921027409473500,10.4134736328125,-9.353107452392578,-0.27510887384414673,-0.12963014841079712
1685921027419234300,10.423234375,-9.34062385559082,-0.22496218979358673,-0.3295978307723999
1685921027428995600,10.43299560546875,-9.252115249633789,-0.26413482427597046,-0.5227259397506714
1685921027438756000,10.442756103515626,-9.171452522277832,-0.23716464638710022,-0.7565763592720032
1685921027448516000,10.45251611328125,-9.1392822265625,-0.2424541711807251,-0.9140655994415283
1685921027458276600,10.462276611328125,-9.064826965332031,-0.22726082801818848,-1.0859806537628174
1685921027468038100,10.4720380859375,-8.979418754577637,-0.25841647386550903,-1.3313684463500977
1685921027477798700,10.481798583984375,-8.856900215148926,-0.2786845564842224,-1.5164432525634766
1685921027487558400,10.491558349609376,-8.793110847473145,-0.24272845685482025,-1.7028520107269287
1685921027497319200,10.501319091796875,-8.737910270690918,-0.215243399143219,-1.8809261322021484
1685921027507080400,10.51108056640625,-8.658003807067871,-0.2441677749156952,-2.0696492195129395
1685921027516841200,10.52084130859375,-8.517945289611816,-0.23830464482307434,-2.2564687728881836
1685921027526601000,10.53060107421875,-8.449464797973633,-0.26470354199409485,-2.4101271629333496
1685921027536361500,10.540361572265626,-8.345268249511719,-0.3135805130004883,-2.6066315174102783
1685921027546123000,10.550123046875,-8.267738342285156,-0.31323570013046265,-2.728883743286133
1685921027555883500,10.559883544921876,-8.138290405273438,-0.34241747856140137,-2.9153695106506348
1685921027565643500,10.5696435546875,-8.0242919921875,-0.32456573843955994,-3.0771970748901367
1685921027575404000,10.579404052734375,-7.966510772705078,-0.33622175455093384,-3.224057197570801
1685921027585165600,10.58916552734375,-7.855210304260254,-0.3413498103618622,-3.4084830284118652
1685921027594926000,10.598926025390625,-7.788693428039551,-0.37598177790641785,-3.463153600692749
1685921027604685800,10.608685791015626,-7.659783840179443,-0.3967110216617584,-3.631660223007202
1685921027614446600,10.618446533203125,-7.588395118713379,-0.4560753107070923,-3.7606921195983887
1685921027624208000,10.628207763671876,-7.4386305809021,-0.42737817764282227,-3.881195545196533
1685921027633968600,10.63796875,-7.3590168952941895,-0.43030694127082825,-4.009917736053467
1685921027643728400,10.647728271484375,-7.223289966583252,-0.4573532044887543,-4.0485711097717285
1685921027653489000,10.657489013671874,-7.108365058898926,-0.5086266398429871,-4.231278896331787
1685921027663250400,10.66725048828125,-7.014803409576416,-0.49537092447280884,-4.277764797210693
1685921027673011000,10.677010986328124,-6.883185863494873,-0.5204721689224243,-4.365039348602295
1685921027682770700,10.686770751953125,-6.821515083312988,-0.5669269561767578,-4.456977367401123
1685921027692531500,10.696531494140626,-6.498130798339844,-0.5799828171730042,-4.527021408081055
1685921027702292700,10.706292724609375,-0.5583333969116211,-3.0095760822296143,-4.475991249084473
1685921027712053500,10.716053466796875,70.84928894042969,-20.4692440032959,70.59928894042969
1685921027721813200,10.725813232421874,69.68379974365234,-19.33230972290039,75.83203125
1685921027731573800,10.73557373046875,-2.114637851715088,-19.236167907714844,-6.974948406219482
1685921027741335300,10.745335205078124,-17.360950469970703,-6.319960594177246,-9.730207443237305
1685921027751095800,10.755095703125,-12.731252670288086,-1.8024699687957764,-7.530357837677002
1685921027760855800,10.764855712890625,-9.817702293395996,-0.3290805518627167,-5.27655553817749
1685921027770616300,10.7746162109375,-8.011237144470215,0.29298585653305054,-4.343832015991211
1685921027780377900,10.7843779296875,-5.942896842956543,1.132370114326477,-4.055695056915283
1685921027790138400,10.794138427734374,-2.6770291328430176,2.7639458179473877,-3.1267306804656982
1685921027799898000,10.803898193359375,-0.540715217590332,3.5566301345825195,-1.3518931865692139
1685921027809659000,10.813658935546876,0.44033050537109375,2.89196515083313,0.12909364700317383
1685921027819420200,10.823420166015625,0.8960533142089844,0.7538408041000366,0.9241563677787781
1685921027829181000,10.833180908203126,1.621241569519043,-0.8952587842941284,1.1178356409072876
1685921027838940700,10.842940673828124,1.9360523223876953,-1.3164472579956055,1.1627182960510254
1685921027848701200,10.852701171875,1.633030891418457,-0.416364461183548,0.4524439573287964
1685921027858462700,10.862462646484374,0.2577371597290039,0.2841823697090149,-0.526577889919281
1685921027868223200,10.87222314453125,-0.4529228210449219,0.21161524951457977,-0.5257183909416199
1685921027877983000,10.88198291015625,0.7420635223388672,-0.18602198362350464,0.08157485723495483
1685921027887743700,10.89174365234375,1.2061681747436523,-0.03564879298210144,0.3322718143463135
1685921027897505000,10.901505126953126,0.5895004272460938,0.080008864402771,0.13459277153015137
1685921027907265800,10.911265869140625,0.3825674057006836,-0.007846832275390625,-0.09816324710845947
1685921027917025500,10.921025634765625,0.6944646835327148,-0.11214685440063477,-0.026091277599334717
1685921027926786300,10.930786376953124,0.6999588012695312,-0.012005895376205444,0.2903657555580139
1685921027936547600,10.940547607421875,0.5955448150634766,0.011248290538787842,0.09074020385742188
1685921027946308400,10.950308349609376,0.5629291534423828,0.056803733110427856,-0.11826920509338379
1685921027956068000,10.960068115234375,0.6331186294555664,-0.017356187105178833,-0.009777188301086426
1685921027965828600,10.96982861328125,0.6865472793579102,-0.0650753378868103,0.17041057348251343
1685921027975590100,10.979590087890625,0.584559440612793,-0.0171506404876709,0.08354562520980835
1685921027985350700,10.9893505859375,0.540069580078125,0.07114376127719879,0.02186274528503418
1685921027995110700,10.999110595703126,0.5960054397583008,0.0016089081764221191,-0.03510326147079468
1685921028004871200,11.00887109375,0.630335807800293,-0.0556086003780365,0.05580472946166992
1685921028014632700,11.0186328125,0.6168584823608398,-0.014763474464416504,0.11718064546585083
1685921028024393200,11.028393310546875,0.5532245635986328,0.03292699158191681,0.03565853834152222
1685921028034153000,11.038153076171875,0.6139001846313477,-0.012522786855697632,-0.045114338397979736
1685921028043913700,11.047913818359374,0.6099834442138672,-0.019547611474990845,0.06004208326339722
1685921028053675000,11.057675048828125,0.6442995071411133,-0.017009317874908447,0.09068387746810913
1685921028063435800,11.067435791015624,0.5805997848510742,0.011907339096069336,0.13590645790100098
1685921028073195500,11.077195556640625,0.5719966888427734,0.17676568031311035,0.17602282762527466
1685921028082956000,11.0869560546875,0.6278972625732422,0.10204704105854034,-0.044495463371276855
1685921028092717600,11.096717529296875,0.5068569183349609,-0.44023633003234863,-0.2773827910423279
1685921028102478000,11.10647802734375,0.7754316329956055,-0.18727043271064758,0.07271480560302734
1685921028112237800,11.11623779296875,0.5992507934570312,0.3122323453426361,0.12602722644805908
1685921028121998600,11.12599853515625,0.46163082122802734,0.17593738436698914,0.05086773633956909
1685921028131759900,11.135759765625,0.7135839462280273,-0.12442019581794739,0.051688194274902344
1685921028141520600,11.145520751953125,0.6234416961669922,-0.21581241488456726,0.011589229106903076
1685921028151280400,11.1552802734375,0.502471923828125,0.037309616804122925,0.03529292345046997
1685921028161041000,11.165041015625,0.5704803466796875,0.24432286620140076,0.07055509090423584
1685921028170802400,11.174802490234375,0.5666580200195312,-0.04750850796699524,0.041914939880371094
1685921028180563000,11.18456298828125,0.5962915420532227,-0.2687234878540039,0.011057376861572266
1685921028190323000,11.194322998046875,0.6210718154907227,0.045008450746536255,0.07319605350494385
1685921028200083500,11.20408349609375,0.5287714004516602,0.16593503952026367,0.05832785367965698
1685921028209845000,11.213844970703125,0.5871505737304688,-0.030414164066314697,0.06292480230331421
1685921028219605500,11.22360546875,0.6334524154663086,-0.13714376091957092,0.027133166790008545
1685921028229365200,11.233365234375,0.5554475784301758,-0.010115385055541992,0.05102497339248657
1685921028239126000,11.2431259765625,0.5659933090209961,0.09683752059936523,0.10090881586074829
1685921028248887300,11.25288720703125,0.5598030090332031,-0.020422428846359253,0.03614389896392822
1685921028258648000,11.26264794921875,0.6109476089477539,-0.09645074605941772,0.043299734592437744
1685921028268407800,11.27240771484375,0.5759878158569336,-0.05320987105369568,0.06226933002471924
1685921028278168300,11.282168212890625,0.5434741973876953,0.018471330404281616,0.01237189769744873
1685921028287929900,11.291929931640626,0.5438175201416016,0.00394439697265625,0.06885457038879395
1685921028297690400,11.3016904296875,0.5677223205566406,-0.0455322265625,0.08170437812805176
1685921028307450400,11.311450439453125,0.5464706420898438,-0.021197140216827393,0.10654425621032715
1685921028317211000,11.3212109375,0.5396747589111328,-0.07975149154663086,0.07951092720031738
1685921028326972400,11.330972412109375,0.5518054962158203,-0.012724727392196655,0.08847969770431519
1685921028336733000,11.34073291015625,0.5283737182617188,0.060045212507247925,-0.015047729015350342
1685921028346492700,11.35049267578125,0.48408985137939453,0.0962333083152771,-0.243136465549469
1685921028356253400,11.36025341796875,0.40528106689453125,0.014518320560455322,-0.30558252334594727
1685921028366014700,11.3700146484375,0.4951744079589844,-0.22290250658988953,0.0461997389793396
1685921028375775500,11.379775390625,0.5343637466430664,-0.14770278334617615,0.39091891050338745
1685921028385535200,11.38953515625,0.5585842132568359,0.08132874965667725,0.25257420539855957
1685921028395295700,11.399295654296875,0.41506195068359375,0.12244307994842529,-0.04316151142120361
1685921028405057300,11.409057373046876,0.3797464370727539,0.011993467807769775,-0.14142844080924988
1685921028414817800,11.41881787109375,0.5334911346435547,-0.041918545961380005,0.10145807266235352
1685921028424577800,11.428577880859375,0.46114158630371094,0.017852306365966797,0.15706580877304077
1685921028434338300,11.43833837890625,0.4040031433105469,0.00758633017539978,0.010805249214172363
1685921028444099800,11.448099853515625,0.43721675872802734,0.047031134366989136,0.006857573986053467
1685921028453860400,11.4578603515625,0.42759227752685547,-0.035917818546295166,0.0937124490737915
1685921028463620000,11.4676201171875,0.3380880355834961,-0.09619420766830444,0.044927239418029785
1685921028473380900,11.477380859375,0.3889474868774414,-0.04728889465332031,0.042009055614471436
1685921028483142100,11.48714208984375,0.42485713958740234,0.03802448511123657,0.06213200092315674
1685921028492903000,11.49690283203125,0.43662452697753906,-0.0005976855754852295,0.08663421869277954
1685921028502662700,11.50666259765625,0.4057960510253906,-0.08501079678535461,0.02427583932876587
1685921028512423200,11.516423095703125,0.410797119140625,-0.036284178495407104,-0.05833709239959717
1685921028522184700,11.526184814453124,0.37332725524902344,0.09121362864971161,0.04875314235687256
1685921028531945200,11.5359453125,0.40247440338134766,0.023687124252319336,0.07764381170272827
1685921028541705000,11.545705078125,0.30393218994140625,-0.02356526255607605,0.02496582269668579
1685921028551465700,11.5554658203125,0.4118232727050781,-0.001868128776550293,-0.007670879364013672
1685921028561227000,11.56522705078125,0.4402751922607422,0.18414433300495148,-0.03111875057220459
1685921028570987800,11.57498779296875,0.12924957275390625,0.16889943182468414,0.22341543436050415
1685921028580747500,11.58474755859375,0.5650434494018555,-0.13745063543319702,0.1999039649963379
1685921028590508300,11.59450830078125,0.3247556686401367,-0.18470275402069092,-0.11308565735816956
1685921028600269600,11.60426953125,0.27196502685546875,0.21612747013568878,-0.07135158777236938
1685921028610030300,11.6140302734375,0.20143985748291016,0.24765875935554504,0.1370241641998291
1685921028619790000,11.6237900390625,0.3793516159057617,-0.029803365468978882,0.27256977558135986
1685921028629550600,11.633550537109375,0.43419647216796875,-0.3068315386772156,-0.2868032455444336
1685921028639312100,11.64331201171875,0.4833803176879883,-0.15073364973068237,-0.3125167191028595
1685921028649072600,11.65307275390625,0.04930877685546875,-0.0403975248336792,-0.10312822461128235
1685921028658832600,11.66283251953125,0.29369544982910156,0.05201238393783569,0.5565453767776489
1685921028668593200,11.67259326171875,0.6682500839233398,-0.07740041613578796,0.4823201894760132
1685921028678354400,11.6823544921875,0.2260150909423828,-0.00507962703704834,-0.23225733637809753
1685921028688115200,11.692115234375,-0.016201019287109375,-0.00945436954498291,-0.6756067276000977
1685921028697875000,11.701875,0.3135261535644531,-0.044007807970047,-0.25581735372543335
1685921028707635700,11.7116357421875,0.32271480560302734,-0.015024065971374512,0.46419966220855713
1685921028717397000,11.72139697265625,0.3529548645019531,0.27710413932800293,0.7270809412002563
1685921028727157500,11.731157470703126,0.2953338623046875,0.09895496070384979,0.0919114351272583
1685921028736917500,11.74091748046875,0.13686847686767578,-0.24664628505706787,-0.5703220963478088
1685921028746678000,11.750677978515625,0.2826204299926758,-0.10452717542648315,-0.3956463932991028
1685921028756439600,11.760439453125,0.2828826904296875,0.10682851076126099,0.30834245681762695
1685921028766200000,11.770199951171875,0.2666969299316406,0.0972968339920044,0.4511790871620178
1685921028775959800,11.779959716796874,0.2786836624145508,-0.061826616525650024,-0.047508955001831055
1685921028785720600,11.789720458984375,0.20085525512695312,-0.11927452683448792,-0.23879167437553406
1685921028795481900,11.79948193359375,0.1950826644897461,0.018957912921905518,-0.05961722135543823
1685921028805242600,11.80924267578125,0.25075244903564453,0.05823875963687897,0.15435880422592163
1685921028815002400,11.81900244140625,0.28432559967041016,-0.008753955364227295,0.11275094747543335
1685921028824763100,11.82876318359375,0.1618633270263672,-0.1166498064994812,0.033496320247650146
1685921028834524400,11.8385244140625,0.1450061798095703,-0.2933589816093445,0.08303040266036987
1685921028844285200,11.84828515625,0.42046165466308594,0.02480718493461609,0.012251615524291992
1685921028854045000,11.858044921875,0.06963157653808594,0.28285446763038635,-0.1795538365840912
1685921028863805400,11.867805419921876,0.1248483657836914,0.09835633635520935,-0.15147781372070312
1685921028873567000,11.87756689453125,0.37946510314941406,0.10201190412044525,0.0994533896446228
1685921028883327500,11.887327392578126,0.11659812927246094,-0.16784358024597168,0.06390887498855591
1685921028893087500,11.89708740234375,0.28652000427246094,-0.06830084323883057,0.029850542545318604
1685921028902848000,11.906847900390625,0.1663656234741211,0.12836167216300964,-0.03849923610687256
1685921028912609300,11.916609375,0.16120624542236328,0.0010092854499816895,-0.021073758602142334
1685921028922370000,11.9263701171875,0.27861976623535156,-0.10685333609580994,0.051887571811676025
1685921028932129800,11.9361298828125,0.2128124237060547,-0.1352224051952362,0.04583549499511719
1685921028941890600,11.945890625,0.14803695678710938,0.010427415370941162,-0.09127587080001831
1685921028951651800,11.95565185546875,0.22088050842285156,0.11372601985931396,-0.03766065835952759
1685921028961412600,11.96541259765625,0.12306594848632812,-0.17762383818626404,-0.039869844913482666
1685921028971172400,11.97517236328125,0.2740669250488281,0.05672714114189148,0.07129865884780884
1685921028980932900,11.984932861328126,0.07881546020507812,0.08840377628803253,-0.005482673645019531
1685921028990694400,11.9946943359375,0.15987300872802734,0.060578182339668274,-0.0028505325317382812
1685921029000455000,12.004454833984376,0.21608734130859375,0.06473252177238464,0.05590850114822388
1685921029010215000,12.01421484375,0.11362171173095703,-0.06595396995544434,0.04294043779373169
1685921029019975400,12.023975341796875,0.1705923080444336,-0.0246163010597229,-0.016667962074279785
1685921029029737000,12.033737060546875,0.15598583221435547,0.04193578660488129,0.009471476078033447
1685921029039497500,12.04349755859375,0.10865592956542969,0.0032325387001037598,0.04683399200439453
1685921029049257200,12.05325732421875,0.16100502014160156,-0.043800413608551025,0.020007193088531494
1685921029059018000,12.06301806640625,0.16303443908691406,-0.045094966888427734,0.04329037666320801
1685921029068779300,12.072779296875,0.1273651123046875,0.021461427211761475,-0.0023078322410583496
1685921029078540000,12.0825400390625,0.15349102020263672,0.08690856397151947,0.01652967929840088
1685921029088299800,12.0922998046875,0.16035747528076172,-0.03437933325767517,0.016219615936279297
1685921029098060300,12.102060302734374,0.13414859771728516,-0.0030823945999145508,0.037105679512023926
1685921029107821800,12.11182177734375,0.10836219787597656,0.018268972635269165,-0.05042749643325806
1685921029117582300,12.121582275390624,0.11832237243652344,-0.0008621811866760254,0.004640638828277588
1685921029127342300,12.13134228515625,0.1681528091430664,-0.026737064123153687,0.04679495096206665
1685921029137102800,12.141102783203126,0.09944438934326172,-0.026164740324020386,-0.005918025970458984
1685921029146864400,12.150864501953125,0.11896991729736328,-0.027857869863510132,-0.026816487312316895
1685921029156625000,12.160625,0.10991287231445312,0.0526488721370697,0.042092859745025635
1685921029166384600,12.170384521484374,0.10337352752685547,-0.009437978267669678,0.024877190589904785
1685921029176145400,12.1801455078125,0.12520503997802734,-0.004459887742996216,0.010190188884735107
1685921029185906700,12.18990673828125,0.11606121063232422,-0.030162066221237183,-0.0017820000648498535
1685921029195667500,12.19966748046875,0.09764575958251953,0.005766063928604126,-0.0016742348670959473
1685921029205427200,12.20942724609375,0.10780715942382812,0.029204457998275757,0.02634066343307495
1685921029215187700,12.219187744140624,0.11779403686523438,-0.025323539972305298,0.02810513973236084
1685921029224949200,12.22894921875,0.10876655578613281,0.04582977294921875,-0.0028929710388183594
1685921029234709800,12.238709716796874,0.10932159423828125,-0.006832212209701538,0.04398214817047119
1685921029244469800,12.2484697265625,0.0839529037475586,-0.004364430904388428,-0.003756701946258545
1685921029254230300,12.258230224609376,0.13199329376220703,0.028899699449539185,-0.01302945613861084
1685921029263991800,12.26799169921875,0.11331367492675781,0.02124229073524475,0.010695040225982666
1685921029273752300,12.27775244140625,0.1749439239501953,-0.024173229932785034,0.01340395212173462
1685921029283512000,12.287511962890624,0.04467582702636719,-0.05844476819038391,-0.04995840787887573
1685921029293272800,12.29727294921875,0.07654285430908203,-0.06356656551361084,0.13123780488967896
1685921029303034000,12.3070341796875,0.10310935974121094,-0.020401298999786377,0.09563839435577393
1685921029312795000,12.316794921875,0.0962362289428711,0.07182803750038147,0.014342963695526123
1685921029322554600,12.3265546875,0.02595233917236328,-0.01961764693260193,-0.06547456979751587
1685921029332315400,12.3363154296875,0.04405975341796875,-0.011562496423721313,-0.08624237775802612
1685921029342076700,12.34607666015625,0.10907268524169922,0.011133834719657898,-0.05187040567398071
1685921029351837400,12.35583740234375,0.11185932159423828,0.028609737753868103,0.02787339687347412
1685921029361597200,12.36559716796875,0.09343433380126953,0.05497807264328003,0.05639505386352539
1685921029371357700,12.375357666015624,0.12708759307861328,0.03831854462623596,0.006985366344451904
1685921029381119200,12.385119140625,0.05421733856201172,0.014986783266067505,-0.027022719383239746
1685921029390879700,12.394879638671876,0.07206058502197266,0.039799898862838745,-0.09141072630882263
1685921029400639700,12.4046396484375,0.09911727905273438,0.04615798592567444,-0.047677040100097656
1685921029410400300,12.414400146484375,0.088134765625,-0.001383274793624878,0.048348426818847656
1685921029420161800,12.424161865234375,0.10794925689697266,-0.0550747811794281,0.01789039373397827
1685921029429922300,12.43392236328125,0.09208011627197266,-0.0019325464963912964,0.005098462104797363
1685921029439682000,12.44368212890625,0.03171730041503906,0.007728904485702515,-0.01184624433517456
1685921029449442800,12.45344287109375,0.09479427337646484,0.0007568299770355225,0.008935093879699707
1685921029459204000,12.4632041015625,0.11681556701660156,-0.05543076992034912,0.04797399044036865
