time,seconds_elapsed,z,y,x
1685921017137028600,0.141028564453125,10.564311981201172,1.6426727771759033,1.155733346939087
1685921017146984000,0.15098388671875,11.18913745880127,0.8811569213867188,1.1174482107162476
1685921017156939800,0.160939697265625,11.811869621276855,-0.07627122104167938,0.9619147181510925
1685921017166895400,0.170895263671875,12.482159614562988,-1.0579266548156738,0.5955137610435486
1685921017176851000,0.180850830078125,13.154841423034668,-1.8601205348968506,0.29850462079048157
1685921017186806800,0.190806884765625,13.336695671081543,-2.312364101409912,0.15732808411121368
1685921017196762400,0.200762451171875,12.764512062072754,-2.42512583732605,-0.15613168478012085
1685921017206718200,0.21071826171875,11.840583801269531,-2.4299113750457764,-0.44356951117515564
1685921017216673800,0.220673828125,11.100603103637695,-2.389233350753784,-0.5799604058265686
1685921017226629400,0.23062939453125,10.372885704040527,-2.0874385833740234,-0.5632106065750122
1685921017236585200,0.240585205078125,9.60209846496582,-1.6133606433868408,-0.5488536953926086
1685921017246541000,0.250541015625,8.838189125061035,-1.191924810409546,-0.6302096843719482
1685921017256496600,0.26049658203125,8.218149185180664,-0.9574281573295593,-0.6661019921302795
1685921017266452200,0.2704521484375,7.7368927001953125,-0.7755736112594604,-0.6828517913818359
1685921017276408000,0.280407958984375,7.332505702972412,-0.7564310431480408,-0.6637091636657715
1685921017286363600,0.29036376953125,7.159923553466797,-0.6771687865257263,-0.5488536953926086
1685921017296319500,0.300319580078125,7.131209850311279,-0.576670229434967,-0.26889345049858093
1685921017306275300,0.310275390625,7.183851718902588,-0.36610186100006104,-0.029312077909708023
1685921017316231000,0.32023095703125,7.258029460906982,-0.2560320198535919,0.2841476798057556
1685921017326186800,0.330186767578125,7.34686279296875,-0.25363919138908386,0.5189434289932251
1685921017336142300,0.340142333984375,7.313363075256348,-0.31345975399017334,0.6409773826599121
1685921017346098200,0.35009814453125,7.16231632232666,-0.4019941985607147,0.6433702111244202
1685921017356053800,0.3600537109375,7.080960273742676,-0.6029912829399109,0.5667998790740967
1685921017366009600,0.370009521484375,7.052246570587158,-0.7851449251174927,0.4615156650543213
1685921017375965200,0.379965087890625,7.222136974334717,-0.7755736112594604,0.3251247704029083
1685921017385921000,0.389921142578125,7.648358345031738,-0.8114659786224365,0.31764721870422363
1685921017395876900,0.399876953125,8.22293472290039,-0.8234301209449768,0.4328017830848694
1685921017405832400,0.40983251953125,8.931509971618652,-0.6894320249557495,0.5261218547821045
1685921017415788300,0.419788330078125,9.721739768981934,-0.5072783827781677,0.7295117974281311
1685921017425744000,0.429743896484375,10.600204467773438,-0.363709032535553,0.88025963306427
1685921017435699700,0.43969970703125,11.411969184875488,-0.31345975399017334,0.8925228714942932
1685921017445655300,0.4496552734375,12.12054443359375,-0.38763725757598877,0.8515457510948181
1685921017455611100,0.459611083984375,12.513265609741211,-0.5264210104942322,0.7295117974281311
1685921017465567000,0.46956689453125,12.422338485717773,-0.7085745930671692,0.5667998790740967
1685921017475522600,0.4795224609375,12.005688667297363,-0.7923234105110168,0.4495515525341034
1685921017485478400,0.489478515625,11.344970703125,-0.7109674215316772,0.4495515525341034
1685921017495434000,0.49943408203125,10.461421012878418,-0.6245267391204834,0.4543372094631195
1685921017505389800,0.509389892578125,9.458230018615723,-0.349352091550827,0.483051061630249
1685921017515345400,0.519345458984375,8.51037311553955,-0.17228323221206665,0.4902295470237732
1685921017525301200,0.52930126953125,7.669893741607666,0.036191441118717194,0.42801615595817566
1685921017535257000,0.539257080078125,7.269993305206299,0.13190434873104095,0.4016951024532318
1685921017545212700,0.549212646484375,7.097710132598877,0.3041875660419464,0.3200400173664093
1685921017555168500,0.55916845703125,7.200601577758789,0.48873403668403625,0.4567300081253052
1685921017565124000,0.5691240234375,7.564609527587891,0.6107679605484009,0.5811567902565002
1685921017575080000,0.579079833984375,7.8903326988220215,0.7088736891746521,0.6816553473472595
1685921017585035500,0.589035400390625,8.273183822631836,0.7854440212249756,0.7677969932556152
1685921017594991400,0.598991455078125,8.582157135009766,0.8309076428413391,0.8012964725494385
1685921017604899600,0.608899658203125,8.866903305053711,0.802193820476532,0.8682954907417297
1685921017614710500,0.61871044921875,9.151947975158691,0.7806583642959595,0.9451649188995361
1685921017624471600,0.628471435546875,9.441479682922363,0.6514459848403931,0.9619147181510925
1685921017634232300,0.638232421875,9.587740898132324,0.45284169912338257,0.8060821294784546
1685921017643992600,0.64799267578125,9.669096946716309,0.368793785572052,0.9044869542121887
1685921017653752800,0.6577529296875,10.008877754211426,0.3568296730518341,1.0480563640594482
1685921017663513900,0.667513916015625,10.250852584838867,0.385543555021286,1.0169496536254883
1685921017673274600,0.677274658203125,10.356136322021484,0.37597227096557617,0.846760094165802
1685921017683035000,0.687034912109375,10.60977554321289,0.1941177397966385,0.7630113363265991
1685921017692795100,0.696795166015625,10.751251220703125,0.029012974351644516,0.7175477147102356
1685921017702556200,0.70655615234375,10.7799654006958,-0.18903298676013947,0.7630113363265991
1685921017712317000,0.71631689453125,10.80150032043457,-0.17228323221206665,0.9427721500396729
1685921017722077200,0.7260771484375,11.000104904174805,-0.10019944608211517,1.1748759746551514
1685921017731837400,0.73583740234375,11.079068183898926,0.1821536272764206,1.5460625886917114
1685921017741598500,0.745598388671875,11.169995307922363,0.5461617708206177,1.8284156322479248
1685921017751359500,0.755359375,11.287542343139648,0.9337990283966064,2.1278176307678223
1685921017761119500,0.765119384765625,11.273185729980469,1.2643076181411743,2.2570300102233887
1685921017770879700,0.774879638671875,11.256436347961426,1.233201026916504,2.2331018447875977
1685921017780640800,0.784640869140625,11.304292678833008,0.9122636318206787,2.08713960647583
1685921017790401800,0.79440185546875,11.33539867401123,0.4743770956993103,1.8762720823287964
1685921017800161800,0.804161865234375,11.282756805419922,0.11276176571846008,1.5795620679855347
1685921017809922000,0.813922119140625,11.306685447692871,-0.19621145725250244,1.2873386144638062
1685921017819683000,0.82368310546875,11.285149574279785,-0.33738797903060913,1.1030912399291992
1685921017829444000,0.833444091796875,11.23490047454834,-0.3565305769443512,1.1174482107162476
1685921017839204000,0.8432041015625,11.122138977050781,-0.5240281820297241,1.4333007335662842
1685921017848964400,0.85296435546875,10.487741470336914,-0.8928219676017761,2.163709878921509
1685921017858725400,0.862725341796875,9.791131019592285,-0.8665009140968323,2.7071797847747803
1685921017868486400,0.872486328125,9.396016120910645,-0.7396813035011292,2.924926519393921
1685921017878246400,0.882246337890625,9.62363338470459,-0.5910272002220154,2.6928226947784424
1685921017888006700,0.892006591796875,10.561919212341309,-0.5383850932121277,2.077568292617798
1685921017897767700,0.901767578125,11.866905212402344,-0.7779664397239685,1.2394821643829346
1685921017907528700,0.91152880859375,13.475778579711914,-1.1871391534805298,0.35383865237236023
1685921017917289000,0.9212890625,15.180365562438965,-1.7306089401245117,-0.39571303129196167
1685921017927049000,0.931049072265625,15.99183177947998,-2.427518606185913,-1.262213945388794
1685921017936810000,0.94081005859375,15.917654037475586,-3.1815567016601562,-2.1242282390594482
1685921017946571000,0.950571044921875,14.555240631103516,-3.751347780227661,-2.686840772628784
1685921017956331300,0.960331298828125,12.348161697387695,-3.8949170112609863,-2.9404799938201904
1685921017966091500,0.970091552734375,9.946664810180664,-3.5718860626220703,-2.6509482860565186
1685921017975852300,0.979852294921875,7.796713352203369,-3.1839497089385986,-2.138585329055786
1685921017985613300,0.98961328125,6.058627128601074,-2.764906644821167,-1.4730814695358276
1685921017995373600,0.99937353515625,4.663012981414795,-2.357827663421631,-0.6972087025642395
1685921018005133800,1.0091337890625,3.8225340843200684,-1.9007984399795532,-0.012562318705022335
1685921018014894600,1.01889453125,3.5617165565490723,-1.3908281326293945,0.5045864582061768
1685921018024655600,1.028655517578125,4.019044876098633,-0.8018946647644043,0.9092726111412048
1685921018034415900,1.038415771484375,5.156233787536621,-0.13639089465141296,1.3423734903335571
1685921018044176100,1.048176025390625,6.753143787384033,0.47676992416381836,1.5771691799163818
1685921018053937200,1.057937255859375,8.503194808959961,1.0202397108078003,1.8595223426818848
1685921018063698000,1.067697998046875,10.444670677185059,1.5780665874481201,2.11824631690979
1685921018073458200,1.077458251953125,12.345767974853516,1.9202401638031006,2.276172637939453
1685921018083218400,1.087218505859375,13.913665771484375,2.0374884605407715,2.213959217071533
1685921018092979500,1.0969794921875,15.03171157836914,1.9800606966018677,1.960020899772644
1685921018102740500,1.106740478515625,15.47946834564209,1.786242127418518,1.6824533939361572
1685921018112500500,1.11650048828125,14.959927558898926,1.5900306701660156,1.2251251935958862
1685921018122260700,1.1262607421875,13.731810569763184,1.2140583992004395,0.6577271223068237
1685921018132021800,1.136021728515625,12.089437484741211,0.7639086246490479,0.19800607860088348
1685921018141782800,1.14578271484375,10.365707397460938,0.32572299242019653,-0.20398813486099243
1685921018151543000,1.15554296875,8.826225280761719,-0.12442677468061447,-0.5967101454734802
1685921018161303000,1.165302978515625,7.5406813621521,-0.5407779216766357,-0.8578268885612488
1685921018171064000,1.17506396484375,6.621239185333252,-0.885643482208252,-1.0133603811264038
1685921018180825000,1.1848251953125,6.041877269744873,-0.9861420392990112,-1.0492527484893799
1685921018190585300,1.19458544921875,5.910272121429443,-1.1009975671768188,-0.9224331378936768
1685921018200345300,1.204345458984375,5.92223596572876,-1.1679965257644653,-0.8027920126914978
1685921018210106400,1.2141064453125,6.157031536102295,-1.2711870670318604,-0.6876373887062073
1685921018219867400,1.223867431640625,6.405885219573975,-1.3621143102645874,-0.5847460627555847
1685921018229627600,1.233627685546875,6.489634037017822,-1.3310075998306274,-0.4339981973171234
1685921018239388000,1.243387939453125,6.575775623321533,-1.292722463607788,-0.3334996700286865
1685921018249148700,1.253148681640625,6.559025764465332,-1.2134602069854736,-0.19202402234077454
1685921018258909700,1.26290966796875,6.659524440765381,-1.0339984893798828,-0.1537388563156128
1685921018268670000,1.272669921875,6.891927242279053,-0.921535849571228,-0.026919255033135414
1685921018278430200,1.28243017578125,7.057032108306885,-0.766002357006073,0.049651071429252625
1685921018288191200,1.292191162109375,7.356434345245361,-0.48813581466674805,0.11904292553663254
1685921018297952300,1.3019521484375,7.610073089599609,-0.19381862878799438,0.24586252868175507
1685921018307712300,1.311712158203125,7.911868095397949,0.20847466588020325,0.40408793091773987
1685921018317472500,1.321472412109375,8.26839828491211,0.7663014531135559,0.755832850933075
1685921018327233500,1.331233642578125,8.689834594726562,1.328913927078247,1.1676974296569824
1685921018336994600,1.34099462890625,9.17587661743164,1.908276081085205,1.5005989074707031
1685921018346754600,1.350754638671875,9.671489715576172,2.4517459869384766,1.8475581407546997
1685921018356514800,1.360514892578125,10.255638122558594,2.892324447631836,2.228316068649292
1685921018366275800,1.37027587890625,10.851749420166016,3.2344980239868164,2.577967405319214
1685921018376036900,1.380036865234375,11.325827598571777,3.4740793704986572,2.8651061058044434
1685921018385797000,1.389797119140625,11.553146362304688,3.4980075359344482,2.903391122817993
1685921018395557000,1.39955712890625,11.624930381774902,3.2730822563171387,2.7311079502105713
1685921018405318100,1.409318115234375,11.500503540039062,3.009572744369507,2.4364917278289795
1685921018415079200,1.4190791015625,11.304292678833008,2.566601276397705,1.9360926151275635
1685921018424839400,1.42883935546875,11.098210334777832,2.2603201866149902,1.5173486471176147
1685921018434599700,1.438599609375,11.059925079345703,2.3297119140625,1.2490534782409668
1685921018444360400,1.4483603515625,11.148459434509277,2.494816780090332,1.1198409795761108
1685921018454121500,1.45812158203125,11.402398109436035,2.822932481765747,1.0432707071304321
1685921018463881700,1.4678818359375,11.648859024047852,3.177070379257202,1.0217353105545044
1685921018473642000,1.47764208984375,11.713464736938477,3.3281171321868896,1.0456634759902954
1685921018483403000,1.487403076171875,11.938689231872559,3.4214372634887695,1.3782658576965332
1685921018493163800,1.497163818359375,12.14925765991211,3.7660038471221924,1.8499510288238525
1685921018502924000,1.506924072265625,11.811869621276855,3.4597225189208984,1.8714864253997803
1685921018512684300,1.516684326171875,11.842976570129395,3.282653570175171,1.6393826007843018
1685921018522445300,1.5264453125,12.357732772827148,2.659921407699585,1.6226328611373901
1685921018532206300,1.536206298828125,12.68315601348877,1.566102385520935,1.491027593612671
1685921018541966300,1.54596630859375,12.441481590270996,0.5198407173156738,0.8611170649528503
1685921018551726600,1.5557265625,12.323933601379395,-0.42352959513664246,0.01375873014330864
1685921018561487600,1.565487548828125,12.295220375061035,-1.2855439186096191,-0.5344967842102051
1685921018571248600,1.57524853515625,12.187542915344238,-1.9749759435653687,-1.0348957777023315
1685921018581009000,1.5850087890625,11.831012725830078,-2.5423741340637207,-1.4659029245376587
1685921018590769000,1.594768798828125,11.091032028198242,-3.0260233879089355,-1.8511474132537842
1685921018600530000,1.604530029296875,10.13599681854248,-3.320340633392334,-2.090728759765625
1685921018610291000,1.614291015625,8.967700958251953,-3.234198808670044,-2.1888344287872314
1685921018620051200,1.62405126953125,7.957331657409668,-2.89890456199646,-2.0572292804718018
1685921018629811500,1.6338115234375,7.03788948059082,-2.458625316619873,-1.8200407028198242
1685921018639572200,1.643572265625,6.369993209838867,-2.0252251625061035,-1.4970096349716187
1685921018649333200,1.653333251953125,5.898307800292969,-1.5726827383041382,-1.1928220987319946
1685921018659093500,1.663093505859375,5.735595703125,-1.2302099466323853,-0.9224331378936768
1685921018668853800,1.672853759765625,5.874379634857178,-0.9981061220169067,-0.5919244885444641
1685921018678614800,1.68261474609375,6.2240309715271,-0.8210372924804688,-0.21595224738121033
1685921018688375800,1.692375732421875,6.796214580535889,-0.7468597888946533,0.09032905846834183
1685921018698135800,1.7021357421875,7.229315280914307,-0.6125625967979431,0.37537404894828796
1685921018707896000,1.71189599609375,7.631608486175537,-0.5599204897880554,0.514157772064209
1685921018717657000,1.721656982421875,7.923832416534424,-0.6173482537269592,0.5237290859222412
1685921018727418000,1.731418212890625,8.210970878601074,-0.7301099896430969,0.667298436164856
1685921018737178400,1.741178466796875,8.493622779846191,-0.6245267391204834,0.7965108156204224
1685921018746938400,1.7509384765625,8.814261436462402,-0.5288137793540955,0.9547362327575684
1685921018756699400,1.760699462890625,9.197412490844727,-0.349352091550827,1.0887342691421509
1685921018766460400,1.77046044921875,9.64038372039795,-0.10498509556055069,1.179661512374878
1685921018776220700,1.780220703125,10.109675407409668,0.23240290582180023,1.2251251935958862
1685921018785981000,1.78998095703125,10.681859016418457,0.5365904569625854,1.275374412536621
1685921018795741700,1.79974169921875,11.246864318847656,0.7304090857505798,1.2801600694656372
1685921018805502700,1.809502685546875,11.807084083557129,0.8428717851638794,1.3471591472625732
1685921018815263000,1.819262939453125,12.125329971313477,0.9170492887496948,1.3495519161224365
1685921018825023200,1.829023193359375,11.993724822998047,0.8333004713058472,1.2346965074539185
1685921018834784300,1.8387841796875,11.421540260314941,0.7184450030326843,1.0767701864242554
1685921018844545300,1.848545166015625,10.50927734375,0.649053156375885,0.7941179871559143
1685921018854305500,1.858305419921875,9.503693580627441,0.5509474277496338,0.5309075117111206
1685921018864065500,1.8680654296875,8.53908634185791,0.41186460852622986,0.28654050827026367
1685921018873826600,1.87782666015625,7.669893741607666,0.48873403668403625,0.023330021649599075
1685921018883587600,1.887587646484375,6.925426959991455,0.5676971673965454,-0.22791635990142822
1685921018893347800,1.897347900390625,6.482455730438232,0.7136593461036682,-0.4124628007411957
1685921018903107800,1.90710791015625,6.4202423095703125,0.8237292170524597,-0.4579264223575592
1685921018912868900,1.916868896484375,6.652346134185791,0.8117650747299194,-0.498604416847229
1685921018922630000,1.9266298828125,7.135995388031006,0.7495517134666443,-0.498604416847229
1685921018932390100,1.93639013671875,7.770392417907715,0.6873382925987244,-0.5225326418876648
1685921018942150400,1.946150390625,8.491230010986328,0.6873382925987244,-0.46749773621559143
1685921018951911400,1.955911376953125,9.185447692871094,0.6921239495277405,-0.38614174723625183
1685921018961672400,1.96567236328125,9.774381637573242,0.768694281578064,-0.2952145040035248
1685921018971432400,1.975432373046875,10.380064964294434,0.8165507316589355,-0.2231307178735733
1685921018981192700,1.985192626953125,10.858928680419922,0.9050851464271545,-0.06281159073114395
1685921018990953700,1.99495361328125,10.968997955322266,1.0393823385238647,0.03768695518374443
1685921019000714800,2.00471484375,10.945070266723633,1.0680961608886719,0.07597211748361588
1685921019010475000,2.01447509765625,10.83260726928711,1.163809061050415,0.16689938306808472
1685921019020235000,2.024235107421875,10.68425178527832,1.2044870853424072,0.19800607860088348
1685921019029996000,2.03399609375,10.533205032348633,1.3193426132202148,0.3514458239078522
1685921019039757000,2.043757080078125,10.415956497192383,1.2595219612121582,0.42323049902915955
1685921019049517300,2.053517333984375,10.29153060913086,1.1853444576263428,0.5021936297416687
1685921019059277600,2.063277587890625,10.138389587402344,1.1733803749084473,0.6266204118728638
1685921019069038300,2.073038330078125,10.169496536254883,1.1566306352615356,0.789332389831543
1685921019078799400,2.08279931640625,10.191031455993652,1.1925230026245117,1.0001999139785767
1685921019088559600,2.0925595703125,10.140782356262207,1.3983057737350464,1.215553879737854
1685921019098320000,2.10231982421875,10.217352867126465,1.6378871202468872,1.3758729696273804
1685921019108081000,2.112080810546875,10.396814346313477,1.805384635925293,1.464706540107727
1685921019117842000,2.121842041015625,10.49252700805664,1.7647067308425903,1.435693621635437
1685921019127602000,2.131601806640625,10.573883056640625,1.6091731786727905,1.210768222808838
1685921019137362200,2.141362060546875,10.696216583251953,1.434198021888733,0.9523434042930603
1685921019147123200,2.151123291015625,10.885249137878418,1.2882359027862549,0.8682954907417297
1685921019156884200,2.16088427734375,11.05035400390625,1.1303095817565918,0.7055835723876953
1685921019166644500,2.17064453125,10.916356086730957,0.8979067206382751,0.6266204118728638
1685921019176404500,2.180404541015625,10.511670112609863,0.5581258535385132,0.7151548862457275
1685921019186165500,2.19016552734375,9.752845764160156,0.1989033818244934,0.547657310962677
1685921019195926500,2.199926513671875,9.202198028564453,-0.045164529234170914,0.3801597058773041
1685921019205686800,2.209686767578125,9.211769104003906,-0.4713860750198364,0.4950151741504669
1685921019215447000,2.219447021484375,9.707382202148438,-0.9550353288650513,0.6170491576194763
1685921019225208000,2.2292080078125,10.689038276672363,-1.252044439315796,0.483051061630249
1685921019234968800,2.23896875,11.816655158996582,-1.5726827383041382,0.22193430364131927
1685921019244729000,2.24872900390625,13.059128761291504,-1.9199410676956177,-0.2063809484243393
1685921019254489300,2.2584892578125,14.098212242126465,-2.2549362182617188,-0.7474579811096191
1685921019264250400,2.26825048828125,14.60339641571045,-2.819941520690918,-1.5065809488296509
1685921019274011400,2.278011474609375,14.493027687072754,-3.4591243267059326,-2.138585329055786
1685921019283771400,2.287771484375,13.62891960144043,-3.9595232009887695,-2.4783661365509033
1685921019293531600,2.29753173828125,11.984152793884277,-4.132105827331543,-2.4329023361206055
1685921019303292700,2.307292724609375,10.107282638549805,-3.710669755935669,-2.0309081077575684
1685921019313053700,2.3170537109375,8.43140983581543,-3.282055377960205,-1.3387842178344727
1685921019322814000,2.32681396484375,6.834499835968018,-2.95902419090271,-0.7067800164222717
1685921019332574000,2.336573974609375,5.436193943023682,-2.5974090099334717,-0.08434699475765228
1685921019342335000,2.3463349609375,4.37318229675293,-2.1759731769561768,0.6170491576194763
1685921019352096000,2.356095947265625,4.167399883270264,-1.5702898502349854,1.3591232299804688
1685921019361856300,2.365856201171875,4.502694129943848,-0.6221339106559753,2.103889226913452
1685921019371616500,2.375616455078125,5.548656463623047,0.4504488706588745,2.6760730743408203
1685921019381377500,2.38537744140625,7.104888439178467,1.3600205183029175,3.157329559326172
1685921019391138600,2.395138671875,8.723334312438965,1.8843477964401245,3.528217077255249
1685921019400898600,2.404898681640625,10.49970531463623,2.2244277000427246,3.669393539428711
1685921019410658800,2.414658935546875,12.185150146484375,2.5283162593841553,3.5306098461151123
1685921019420419800,2.424419921875,13.609777450561523,2.449352979660034,3.2626137733459473
1685921019430180900,2.434180908203125,14.663217544555664,2.425424814224243,2.9536404609680176
1685921019439941000,2.443941162109375,15.163616180419922,2.2938196659088135,2.6306095123291016
1685921019449701000,2.453701171875,14.859428405761719,2.1311075687408447,2.213959217071533
1685921019459462100,2.463462158203125,13.660026550292969,1.8867406845092773,1.617847204208374
1685921019469223200,2.47322314453125,12.13490104675293,1.5083755254745483,1.0911271572113037
1685921019478983400,2.4829833984375,10.535597801208496,0.9337990283966064,0.5356931686401367
1685921019488743700,2.49274365234375,9.017950057983398,0.3975076675415039,-0.1657029688358307
1685921019498504700,2.502504638671875,7.854440212249756,-0.16510476171970367,-0.7331010103225708
1685921019508265700,2.512265625,6.978068828582764,-0.6894320249557495,-1.1736794710159302
1685921019518025700,2.522025634765625,6.532704830169678,-1.3214362859725952,-1.4778671264648438
1685921019527786000,2.531785888671875,6.360421657562256,-1.7832510471343994,-1.7602201700210571
1685921019537547000,2.541547119140625,6.415456771850586,-2.202294111251831,-1.8008981943130493
1685921019547308000,2.55130810546875,6.525526523590088,-2.444268226623535,-1.8391833305358887
1685921019557068300,2.561068359375,6.722036838531494,-2.575873613357544,-1.7769699096679688
1685921019566828300,2.570828369140625,6.7049880027771,-2.6500511169433594,-1.6788642406463623
1685921019576589300,2.58058935546875,6.685845375061035,-2.583052158355713,-1.5448660850524902
1685921019586350300,2.590350341796875,6.774679183959961,-2.4538395404815674,-1.353141188621521
1685921019596110600,2.600110595703125,6.786643028259277,-2.226222276687622,-1.144965648651123
1685921019605870800,2.609870849609375,7.004390239715576,-1.9725831747055054,-0.836291491985321
1685921019615632000,2.6196318359375,7.205387115478516,-1.6420745849609375,-0.6349952816963196
1685921019625392600,2.629392578125,7.528717517852783,-1.4243277311325073,-0.4220340847969055
1685921019635153000,2.63915283203125,7.883154392242432,-1.1727821826934814,-0.24017956852912903
1685921019644913200,2.6489130859375,8.304290771484375,-0.88803631067276,-0.05563312768936157
1685921019654674200,2.658674072265625,8.768797874450684,-0.4953143000602722,0.16450655460357666
1685921019664435200,2.668435302734375,9.204590797424316,0.055334024131298065,0.39451664686203003
1685921019674195200,2.6781953125,9.7097749710083,0.6897311210632324,0.7797610759735107
1685921019683955500,2.68795556640625,10.375279426574707,1.55623197555542,1.2658032178878784
1685921019693716500,2.697716552734375,11.186744689941406,2.5450658798217773,1.8954145908355713
1685921019703477500,2.7074775390625,11.926725387573242,3.344866991043091,2.5250260829925537
1685921019713237800,2.71723779296875,12.254542350769043,3.955335855484009,2.790928602218628
1685921019722998000,2.726998046875,12.27368450164795,4.096512317657471,2.601895570755005
1685921019732758800,2.7367587890625,12.211471557617188,3.8261234760284424,2.084746837615967
1685921019742519800,2.746519775390625,12.244970321655273,3.191427230834961,1.5436697006225586
1685921019752280000,2.756280029296875,12.285648345947266,2.566601276397705,1.196411371231079
1685921019762040300,2.766040283203125,12.21386432647705,2.111665964126587,0.7989036440849304
1685921019771801300,2.77580126953125,12.039188385009766,1.8317056894302368,0.8300103545188904
1685921019781562400,2.785562255859375,12.02483081817627,1.6546368598937988,1.4404792785644531
1685921019791322600,2.795322509765625,11.945867538452148,1.383948802947998,2.3024935722351074
1685921019801082600,2.80508251953125,11.536396026611328,1.1207382678985596,2.4364917278289795
1685921019810843600,2.81484375,11.536396026611328,0.617946445941925,2.032104730606079
1685921019820604700,2.824604736328125,12.14925765991211,0.00029910283046774566,1.4862419366836548
1685921019830365000,2.834364990234375,13.090235710144043,-0.6340979933738708,0.9068797826766968
1685921019840125200,2.844125244140625,14.158032417297363,-1.2951152324676514,0.3442673683166504
1685921019849886200,2.85388623046875,14.888142585754395,-1.8457635641098022,-0.06041877344250679
1685921019859647000,2.86364697265625,15.129817962646484,-2.2908284664154053,-0.376570463180542
1685921019869407200,2.8734072265625,14.663217544555664,-2.496910333633423,-0.5129613280296326
1685921019879167500,2.88316748046875,13.233804702758789,-2.2836501598358154,-0.4387838542461395
1685921019888928500,2.892928466796875,11.49093246459961,-1.7282161712646484,-0.35024940967559814
1685921019898689500,2.902689453125,9.678668022155762,-1.2759727239608765,-0.2063809484243393
1685921019908449800,2.91244970703125,7.923832416534424,-0.9933205246925354,-0.024526432156562805
1685921019918209800,2.922209716796875,6.475276947021484,-0.6699903607368469,-0.09391828626394272
1685921019927970800,2.931970703125,5.563013553619385,-0.5718846321105957,-0.1824527233839035
1685921019937731800,2.94173193359375,5.156233787536621,-0.7588238716125488,-0.19920247793197632
1685921019947492000,2.9514921875,5.021936416625977,-1.1440683603286743,-0.2350948303937912
1685921019957252400,2.96125244140625,5.082056045532227,-1.6612170934677124,-0.4938187599182129
1685921019967013400,2.971013427734375,5.3883376121521,-2.226222276687622,-0.6158527135848999
1685921019976774100,2.980774169921875,5.836094379425049,-2.685943365097046,-0.6852445602416992
1685921019986534400,2.990534423828125,6.226423740386963,-2.616551637649536,-0.5991029739379883
1685921019996294700,3.000294677734375,6.403492450714111,-2.6428725719451904,-0.44835513830184937
1685921020006055700,3.0100556640625,6.37956428527832,-2.724228620529175,-0.5943173170089722
1685921020015816700,3.019816650390625,6.228816509246826,-2.8582265377044678,-0.6062814593315125
1685921020025576700,3.02957666015625,6.288637161254883,-2.882154941558838,-0.5201398134231567
1685921020035337000,3.0393369140625,6.458527565002441,-2.8175487518310547,-0.2880360186100006
1685921020045098000,3.049097900390625,6.767500877380371,-2.6045875549316406,0.14297115802764893
1685921020054859000,3.05885888671875,7.4210405349731445,-2.154437780380249,0.5955137610435486
1685921020064619300,3.068619384765625,8.462516784667969,-1.4793626070022583,1.1653046607971191
1685921020074379500,3.078379638671875,9.760024070739746,-0.7636095285415649,1.8475581407546997
1685921020084140300,3.088140380859375,11.4981107711792,-0.011665010824799538,2.570788860321045
1685921020093901300,3.0979013671875,13.028021812438965,0.5437689423561096,3.058924674987793
1685921020103661600,3.10766162109375,14.153246879577637,0.8428717851638794,3.2745778560638428
1685921020113421800,3.117421875,14.627325057983398,0.9074779748916626,3.2650065422058105
1685921020123182800,3.127182861328125,14.28724479675293,0.8213363885879517,2.96321177482605
1685921020132944000,3.13694384765625,13.245768547058105,0.8189435601234436,2.565704107284546
1685921020142704000,3.1467041015625,11.682358741760254,0.706480860710144,2.077568292617798
1685921020152464100,3.156464111328125,10.13599681854248,0.39032918214797974,1.562812328338623
1685921020162225200,3.16622509765625,8.720941543579102,0.23240290582180023,1.069591760635376
1685921020171986200,3.175986083984375,7.40907621383667,0.031405795365571976,0.547657310962677
1685921020181746400,3.185746337890625,6.4202423095703125,-0.1579262912273407,0.0568295381963253
1685921020191506700,3.195506591796875,5.769095420837402,-0.27756741642951965,-0.3885345757007599
1685921020201267700,3.205267822265625,5.4266228675842285,-0.38763725757598877,-0.7354938387870789
1685921020211028500,3.215028564453125,5.5127644538879395,-0.42831525206565857,-0.9367900490760803
1685921020220788700,3.224788818359375,6.113661766052246,-0.4785645306110382,-0.9678967595100403
1685921020230549000,3.234549072265625,7.104888439178467,-0.48813581466674805,-0.867398202419281
1685921020240310000,3.24431005859375,8.167900085449219,-0.4953143000602722,-0.6589235067367554
1685921020250071000,3.254071044921875,9.099306106567383,-0.39960137009620667,-0.48424747586250305
1685921020259831300,3.263831298828125,10.059126853942871,-0.25363919138908386,-0.23030917346477509
1685921020269591300,3.27359130859375,10.916356086730957,0.012263216078281403,-0.05563312768936157
1685921020279352300,3.283352294921875,11.579466819763184,0.26111677289009094,0.11186445504426956
1685921020289113300,3.29311328125,11.955439567565918,0.5030909776687622,0.3562314808368683
1685921020298873600,3.30287353515625,12.249756813049316,0.802193820476532,0.5667998790740967
1685921020308633900,3.3126337890625,12.39123249053955,1.048953652381897,0.914058268070221
1685921020318395000,3.322394775390625,12.403196334838867,1.2810574769973755,1.3351950645446777
1685921020328156000,3.332156005859375,12.422338485717773,1.55623197555542,1.7422740459442139
1685921020337916000,3.341916015625,12.192328453063965,1.6450655460357666,2.072782516479492
1685921020347676200,3.35167626953125,11.763714790344238,1.573280930519104,2.2091734409332275
1685921020357437200,3.361437255859375,11.306685447692871,1.3432707786560059,2.1613171100616455
1685921020367198200,3.3711982421875,10.81825065612793,0.9218349456787109,1.9313069581985474
1685921020376958500,3.38095849609375,10.387243270874023,0.6083751320838928,1.5771691799163818
1685921020386718500,3.390718505859375,10.090533256530762,0.3161516785621643,1.2394821643829346
1685921020396479500,3.4004794921875,9.917950630187988,0.13908281922340393,1.0289137363433838
1685921020406240500,3.410240478515625,10.063913345336914,0.12472587823867798,0.8850452899932861
1685921020416000800,3.420000732421875,10.310672760009766,0.1582254022359848,0.9116654396057129
1685921020425761000,3.429760986328125,10.763215065002441,0.33529427647590637,1.0241280794143677
1685921020435522000,3.43952197265625,11.129317283630371,0.42382872104644775,1.062413215637207
1685921020445283000,3.449282958984375,11.32822036743164,0.3807578980922699,1.1054840087890625
1685921020455043000,3.45904296875,11.266007423400879,0.16301104426383972,1.1772687435150146
1685921020464803300,3.46880322265625,10.954641342163086,-0.20578274130821228,1.2897313833236694
1685921020474564400,3.478564453125,10.549955368041992,-0.48095735907554626,1.2346965074539185
1685921020484325400,3.488325439453125,10.310672760009766,-0.605384111404419,1.0648061037063599
1685921020494085600,3.498085693359375,10.320243835449219,-0.5838487148284912,0.7342974543571472
1685921020503846000,3.507845947265625,10.94985580444336,-0.5623133182525635,0.3032902777194977
1685921020513606700,3.517606689453125,11.98654556274414,-0.8401798605918884,-0.10348957777023315
1685921020523367700,3.52736767578125,13.001701354980469,-1.2086745500564575,-0.5392823815345764
1685921020533128000,3.5371279296875,13.693525314331055,-1.6947166919708252,-1.1258230209350586
1685921020542888200,3.54688818359375,13.935200691223145,-2.27168607711792,-1.719542145729065
1685921020552649200,3.556649169921875,13.638490676879883,-3.0260233879089355,-1.937588095664978
1685921020562410200,3.56641015625,12.707084655761719,-3.569493293762207,-2.0165512561798096
1685921020572170200,3.576170166015625,11.014461517333984,-3.7058839797973633,-1.9304096698760986
1685921020581930500,3.585930419921875,9.290732383728027,-3.576671600341797,-1.4874383211135864
1685921020591691500,3.59569140625,7.641180038452148,-3.521636724472046,-0.9463613629341125
1685921020601452500,3.60545263671875,5.998806476593018,-3.454338550567627,-0.5201398134231567
1685921020611212800,3.615212890625,4.70608377456665,-3.250948667526245,-0.2641077935695648
1685921020620973000,3.62497314453125,3.765106439590454,-2.9374887943267822,-0.05563312768936157
1685921020630734000,3.634734130859375,3.6047873497009277,-2.5495524406433105,0.22432711720466614
1685921020640494800,3.644494873046875,4.255934238433838,-2.3458635807037354,0.6194419860839844
1685921020650255000,3.654255126953125,5.510371208190918,-2.353041887283325,0.97148597240448
1685921020660015400,3.664015380859375,7.09292459487915,-2.3147568702697754,1.4069796800613403
1685921020669776400,3.6737763671875,8.598907470703125,-2.0635104179382324,1.857129454612732
1685921020679537400,3.683537353515625,9.82702350616455,-1.4913266897201538,2.1996021270751953
1685921020689297700,3.693297607421875,11.031211853027344,-0.8832506537437439,2.5298118591308594
1685921020699057700,3.7030576171875,11.943474769592285,-0.23449662327766418,2.8052854537963867
1685921020708818700,3.712818603515625,12.635299682617188,0.4384847581386566,3.0230321884155273
1685921020718579700,3.722579833984375,12.901202201843262,1.0992028713226318,3.1163523197174072
1685921020728340000,3.732340087890625,12.843475341796875,1.7312071323394775,3.212364435195923
1685921020738100200,3.742100341796875,12.503694534301758,2.155035972595215,3.152543783187866
1685921020747861200,3.751861328125,11.814262390136719,2.518744945526123,2.9823544025421143
1685921020757622300,3.761622314453125,10.997712135314941,2.6240291595458984,2.6688945293426514
1685921020767382300,3.77138232421875,10.279565811157227,2.645564556121826,2.2307088375091553
1685921020777142500,3.781142578125,9.712167739868164,2.533101797103882,1.8858433961868286
1685921020786903600,3.790903564453125,9.295517921447754,2.2555344104766846,1.5532410144805908
1685921020796664600,3.80066455078125,9.025128364562988,1.872383713722229,1.222732424736023
1685921020806424800,3.8104248046875,8.917152404785156,1.5442678928375244,0.9068797826766968
1685921020816185000,3.82018505859375,8.88365364074707,1.0824531316757202,0.669691264629364
1685921020825946000,3.829946044921875,8.907581329345703,0.7160521745681763,0.38255253434181213
1685921020835707000,3.839706787109375,8.96530818939209,0.39990049600601196,0.07357929646968842
1685921020845467100,3.849467041015625,9.056235313415527,-0.04755735024809837,-0.16091732680797577
1685921020855227400,3.859227294921875,9.252447128295898,-0.4211367964744568,-0.3885345757007599
1685921020864988400,3.868988525390625,9.309874534606934,-0.641276478767395,-0.6014958024024963
1685921020874749400,3.87874951171875,9.238089561462402,-0.8401798605918884,-0.7187440991401672
1685921020884509700,3.888509765625,9.123234748840332,-0.9598209857940674,-0.8554341197013855
1685921020894269700,3.898269775390625,9.013164520263672,-1.0268200635910034,-0.900897741317749
1685921020904030700,3.90803076171875,8.771190643310547,-1.0220344066619873,-0.9296116232872009
1685921020913791700,3.917791748046875,8.51755142211914,-0.9239286184310913,-0.8793623447418213
1685921020923552000,3.927552001953125,8.220541954040527,-0.9239286184310913,-0.867398202419281
1685921020933312300,3.937312255859375,7.856832981109619,-0.9550353288650513,-0.8027920126914978
1685921020943073300,3.9470732421875,7.497610569000244,-0.9406784176826477,-0.8458628058433533
1685921020952834300,3.956834228515625,7.226922512054443,-0.8377870321273804,-0.8243274092674255
1685921020962594300,3.96659423828125,7.167101860046387,-0.6846463680267334,-0.7642077207565308
1685921020972354600,3.9763544921875,7.250850677490234,-0.5312066078186035,-0.6349952816963196
1685921020982115600,3.986115478515625,7.480860710144043,-0.19381862878799438,-0.43160539865493774
1685921020991876600,3.995876708984375,7.75842809677124,0.08165507018566132,-0.19680966436862946
1685921021001636900,4.005636962890625,8.009973526000977,0.35443684458732605,0.11186445504426956
1685921021011397000,4.015397216796875,8.36411190032959,0.5533402562141418,0.3801597058773041
1685921021021158100,4.025158203125,8.637192726135254,0.7280163168907166,0.5763711333274841
1685921021030919000,4.0349189453125,8.725727081298828,0.7112665176391602,0.724726140499115
1685921021040679200,4.04467919921875,8.888439178466797,0.6777670383453369,0.9332008361816406
1685921021050439400,4.054439453125,9.271589279174805,0.5389832854270935,1.2059825658798218
1685921021060200400,4.064200439453125,9.781559944152832,0.3735794425010681,1.5795620679855347
1685921021069961500,4.07396142578125,10.088140487670898,0.1989033818244934,1.7446668148040771
1685921021079721700,4.0837216796875,10.090533256530762,0.057726845145225525,1.7542381286621094
1685921021089481700,4.093481689453125,10.138389587402344,-0.16031911969184875,1.672882080078125
1685921021099242800,4.10324267578125,10.358529090881348,-0.3565305769443512,1.6058831214904785
1685921021109003800,4.113003662109375,10.643275260925293,-0.5718846321105957,1.5197415351867676
1685921021118764000,4.122763916015625,10.870892524719238,-0.8162516355514526,1.613061547279358
1685921021128524300,4.132524169921875,11.069497108459473,-1.09381902217865,1.952842354774475
1685921021138285300,4.142285400390625,10.811071395874023,-1.4937195777893066,2.276172637939453
1685921021148046000,4.152046142578125,10.310672760009766,-1.8218353986740112,2.2498514652252197
1685921021157806300,4.161806396484375,10.423135757446289,-1.5391831398010254,2.393420934677124
1685921021167566600,4.171566650390625,11.292327880859375,-0.8617152571678162,2.8411777019500732
1685921021177327600,4.18132763671875,12.7549409866333,-0.00687936507165432,3.3678979873657227
1685921021187088600,4.191088623046875,14.150854110717773,0.5724828243255615,3.5258240699768066
1685921021196849000,4.200848876953125,15.221043586730957,1.0896315574645996,3.1860432624816895
1685921021206609000,4.21060888671875,15.982260704040527,1.4006985425949097,2.8411777019500732
1685921021216370200,4.2203701171875,16.05883026123047,1.4365909099578857,2.376671075820923
1685921021226131000,4.230130859375,15.34786319732666,1.2284153699874878,1.5747764110565186
1685921021235891200,4.23989111328125,14.165210723876953,1.053739309310913,0.7031907439231873
1685921021245651500,4.2496513671875,12.77886962890625,0.7782655358314514,-0.01734796352684498
1685921021255412500,4.25941259765625,11.251649856567383,0.33768710494041443,-0.6996015310287476
1685921021265173500,4.269173583984375,9.645169258117676,-0.05712864175438881,-1.3435698747634888
1685921021274933800,4.278933837890625,7.971688747406006,-0.7372884750366211,-1.8296120166778564
1685921021284693800,4.28869384765625,6.518348217010498,-1.469791293144226,-2.272583246231079
1685921021294454800,4.298454833984375,5.223232746124268,-2.14725923538208,-2.552842617034912
1685921021304215800,4.3082158203125,4.107579231262207,-2.609373092651367,-2.8639094829559326
1685921021313976000,4.31797607421875,3.2264223098754883,-2.9012975692749023,-2.983550786972046
1685921021323736300,4.327736328125,2.5633113384246826,-3.1504502296447754,-3.0194430351257324
1685921021333497300,4.337497314453125,2.129911184310913,-3.241377353668213,-3.007478952407837
1685921021343258000,4.347258056640625,2.153839588165283,-3.193521022796631,-2.866302490234375
1685921021353018400,4.357018310546875,2.5010979175567627,-3.0571300983428955,-2.660519599914551
1685921021362778600,4.366778564453125,3.2359936237335205,-2.8486554622650146,-2.3156540393829346
1685921021372539600,4.37653955078125,4.330111503601074,-2.5567309856414795,-2.0141584873199463
1685921021382300700,4.38630078125,5.723631858825684,-2.2429721355438232,-1.810469388961792
1685921021392061000,4.39606103515625,7.1958160400390625,-1.8744773864746094,-1.6812570095062256
1685921021401821000,4.405821044921875,8.689834594726562,-1.409970760345459,-1.6597216129302979
1685921021411582000,4.41558203125,10.564311981201172,-1.158425211906433,-1.578365683555603
1685921021421343000,4.425343017578125,12.833904266357422,-1.0651051998138428,-1.3387842178344727
1685921021431103200,4.435103271484375,15.230615615844727,-1.0148558616638184,-0.9320043921470642
1685921021440863500,4.444863525390625,16.954345703125,-1.1249257326126099,-0.45553362369537354
1685921021450624500,4.45462451171875,17.291732788085938,-1.1560324430465698,-0.13459627330303192
1685921021460385500,4.464385498046875,16.245471954345703,-1.0268200635910034,-0.06759724020957947
1685921021470145800,4.474145751953125,14.17956829071045,-0.6580262184143066,-0.17288143932819366
1685921021479905800,4.48390576171875,12.10379409790039,-0.5599204897880554,-0.27367907762527466
1685921021489666800,4.493666748046875,10.514062881469727,-0.5814558863639832,-0.33110684156417847
1685921021499427800,4.503427734375,9.407979965209961,-0.6771687865257263,-0.359820693731308
1685921021509188000,4.51318798828125,8.596514701843262,-0.9119645357131958,-0.3981058597564697
1685921021518948400,4.5229482421875,8.065009117126465,-1.1105687618255615,-0.5249254703521729
1685921021528709400,4.53270947265625,7.7129645347595215,-1.43389892578125,-0.6948158740997314
1685921021538470100,4.54247021484375,7.473682403564453,-1.677966833114624,-0.7785646915435791
1685921021548230400,4.55223046875,7.521538734436035,-1.7545372247695923,-0.7713862061500549
1685921021557990700,4.56199072265625,7.825427532196045,-1.8194425106048584,-0.6996015310287476
1685921021567751700,4.571751708984375,8.151150703430176,-1.8601205348968506,-0.6661019921302795
1685921021577512700,4.5815126953125,8.551051139831543,-1.6683956384658813,-0.5368895530700684
1685921021587273000,4.59127294921875,8.917152404785156,-1.4673985242843628,-0.3000001311302185
1685921021597033200,4.601033203125,9.419944763183594,-1.2326027154922485,-0.13698910176753998
1685921021606794200,4.610794189453125,9.791131019592285,-1.1536396741867065,-0.0029910283628851175
1685921021616555000,4.620554931640625,10.018449783325195,-0.9526425004005432,0.11425728350877762
1685921021626315300,4.630315185546875,10.124032974243164,-0.576670229434967,0.3200400173664093
1685921021636075500,4.640075439453125,10.40638542175293,-0.17706887423992157,0.6146563291549683
1685921021645836500,4.64983642578125,10.978569030761719,0.27308088541030884,1.0815558433532715
1685921021655597600,4.65959765625,11.658430099487305,0.7495517134666443,1.6154544353485107
1685921021665357800,4.66935791015625,12.108579635620117,1.3911272287368774,2.2307088375091553
1685921021675117800,4.679117919921875,12.429516792297363,2.20528507232666,2.68325138092041
1685921021684878800,4.68887890625,12.565908432006836,2.9377880096435547,3.1019954681396484
1685921021694639900,4.698639892578125,12.458230972290039,3.361616611480713,3.3128628730773926
1685921021704400100,4.708400146484375,12.075079917907715,3.4836506843566895,3.166900873184204
1685921021714160400,4.718160400390625,11.49093246459961,3.2416765689849854,2.7095725536346436
1685921021723921400,4.72792138671875,10.870892524719238,2.5833511352539062,2.063211441040039
1685921021733682400,4.737682373046875,10.375279426574707,1.7383856773376465,1.4862419366836548
1685921021743442400,4.7474423828125,10.047163009643555,0.9337990283966064,1.196411371231079
1685921021753202700,4.75720263671875,9.156734466552734,-0.023629123345017433,1.1413763761520386
1685921021762963700,4.766963623046875,8.062616348266602,-0.9885348677635193,0.9332008361816406
1685921021772724700,4.776724853515625,7.226922512054443,-1.9462621212005615,0.6098706722259521
1685921021782485000,4.786485107421875,7.0546393394470215,-2.4681966304779053,0.16689938306808472
1685921021792245200,4.796245361328125,7.923832416534424,-2.647658348083496,-0.5823532342910767
1685921021802006300,4.80600634765625,9.683454513549805,-2.7696921825408936,-1.5376876592636108
1685921021811767300,4.815767333984375,12.03200912475586,-3.2772696018218994,-2.4496521949768066
1685921021821527300,4.82552734375,14.37338638305664,-4.060320854187012,-3.1896326541900635
1685921021831287600,4.83528759765625,15.78126335144043,-4.864608287811279,-3.678067445755005
1685921021841048600,4.845048583984375,16.135400772094727,-5.434399127960205,-3.7689948081970215
1685921021850809600,4.8548095703125,15.259328842163086,-5.606682777404785,-3.2231321334838867
1685921021860569900,4.86456982421875,13.288839340209961,-5.2166523933410645,-2.3706889152526855
1685921021870330000,4.874330078125,10.897212982177734,-4.321138381958008,-1.4778671264648438
1685921021880091000,4.8840908203125,8.809475898742676,-3.5958142280578613,-0.6349952816963196
1685921021889852000,4.893851806640625,7.229315280914307,-2.8486554622650146,0.22911277413368225
1685921021899612200,4.903612060546875,6.269494533538818,-2.1424734592437744,1.057627558708191
1685921021909372400,4.913372314453125,5.8959150314331055,-1.3310075998306274,1.7877376079559326
1685921021919133400,4.923133544921875,5.965306758880615,-0.6005984544754028,2.3503501415252686
1685921021928894500,4.93289453125,6.5542402267456055,-0.03559323772788048,2.7335007190704346
1685921021938654700,4.94265478515625,7.488039493560791,0.20847466588020325,2.8363921642303467
1685921021948414700,4.952414794921875,8.43140983581543,0.1941177397966385,2.8196423053741455
1685921021958175700,4.96217578125,9.257232666015625,0.16540385782718658,2.6401805877685547
1685921021967936800,4.971936767578125,10.0040922164917,0.10797612369060516,2.2091734409332275
1685921021977697000,4.981697021484375,10.468599319458008,0.13190434873104095,1.6968103647232056
1685921021987457300,4.991457275390625,10.913963317871094,0.19172491133213043,1.1174482107162476
1685921021997218300,5.00121826171875,11.390434265136719,0.3616153299808502,0.7438687682151794
1685921022006979300,5.010979248046875,11.668001174926758,0.6610172390937805,0.6625127792358398
1685921022016739300,5.0207392578125,11.507681846618652,0.981655478477478,0.5859424471855164
1685921022026499600,5.03049951171875,10.971390724182129,1.0872387886047363,0.4734797775745392
1685921022036260600,5.040260498046875,10.15753173828125,0.8811569213867188,0.24107688665390015
1685921022046021600,5.050021728515625,9.21416187286377,0.5341976284980774,-0.09152546525001526
1685921022055782000,5.059781982421875,8.397610664367676,0.18454644083976746,-0.4746761918067932
1685921022065542100,5.069542236328125,7.899903774261475,-0.21296121180057526,-0.7331010103225708
1685921022075303200,5.07930322265625,7.605287551879883,-0.5647061467170715,-0.9918249845504761
1685921022085064000,5.08906396484375,7.447361469268799,-0.9311071038246155,-1.2095718383789062
1685921022094824200,5.09882421875,7.433004379272461,-1.134497046470642,-1.3148560523986816
1685921022104584400,5.10858447265625,7.382755279541016,-1.3310075998306274,-1.4347963333129883
1685921022114345500,5.118345458984375,7.4449687004089355,-1.4937195777893066,-1.5879368782043457
1685921022124106500,5.1281064453125,7.500003337860107,-1.6301103830337524,-1.6716856956481934
1685921022133866800,5.13786669921875,7.552645683288574,-1.7042878866195679,-1.66929292678833
1685921022143627000,5.147626953125,7.53350305557251,-1.709073543548584,-1.7291134595870972
1685921022153388000,5.157387939453125,7.614859104156494,-1.5463616847991943,-1.6453646421432495
1685921022163148800,5.167148681640625,7.705786228179932,-1.4602199792861938,-1.5400804281234741
1685921022172909000,5.176908935546875,7.840083599090576,-1.4243277311325073,-1.4539388418197632
1685921022182669300,5.18666943359375,8.017151832580566,-1.4171491861343384,-1.4276177883148193
1685921022192430300,5.196430419921875,8.285148620605469,-1.374078392982483,-1.3869398832321167
1685921022202191400,5.20619140625,8.618049621582031,-1.3573286533355713,-1.3244273662567139
1685921022211951600,5.21595166015625,8.936295509338379,-1.2831511497497559,-1.168893814086914
1685921022221712000,5.2257119140625,9.326624870300293,-1.1368898153305054,-1.0205388069152832
1685921022231472600,5.23547265625,9.64038372039795,-0.8736793398857117,-0.9224331378936768
1685921022241233700,5.245233642578125,9.913165092468262,-0.48813581466674805,-0.7618148922920227
1685921022250994000,5.254993896484375,10.131211280822754,-0.002093719784170389,-0.5249254703521729
1685921022260754200,5.264754150390625,10.334601402282715,0.5437689423561096,-0.3239283561706543
1685921022270515200,5.27451513671875,10.585846900939941,1.1255239248275757,-0.046061836183071136
1685921022280276200,5.284276123046875,11.009675979614258,1.7623138427734375,0.42801615595817566
1685921022290036200,5.2940361328125,11.383255958557129,2.394318103790283,0.9571290612220764
1685921022299796500,5.30379638671875,11.665608406066895,2.861217737197876,1.397408366203308
1685921022309557500,5.3135576171875,11.656037330627441,3.07417893409729,1.5771691799163818
1685921022319318500,5.323318603515625,11.435897827148438,3.1004998683929443,1.4742778539657593
1685921022329078800,5.333078857421875,11.361720085144043,3.0071799755096436,1.306481122970581
1685921022338839000,5.342839111328125,11.634501457214355,3.0622148513793945,1.1772687435150146
1685921022348600000,5.35260009765625,12.144472122192383,3.224926710128784,1.069591760635376
1685921022358361000,5.362361083984375,12.853046417236328,3.361616611480713,1.1198409795761108
1685921022368121000,5.37212109375,13.72223949432373,3.5626137256622314,1.4934204816818237
1685921022377881300,5.38188134765625,14.339886665344238,3.749253988265991,2.070389747619629
1685921022387642400,5.391642333984375,14.296815872192383,3.770789384841919,2.235494613647461
1685921022397403400,5.4014033203125,13.987842559814453,3.574577808380127,2.1397817134857178
1685921022407163600,5.41116357421875,13.724632263183594,2.765504837036133,1.9145572185516357
1685921022416924000,5.420923828125,13.243375778198242,1.6977076530456543,1.4551352262496948
1685921022426685000,5.430684814453125,12.716655731201172,0.649053156375885,0.6816553473472595
1685921022436446000,5.440446044921875,12.283255577087402,-0.2632105052471161,-0.129810631275177
1685921022446206000,5.4502060546875,11.771191596984863,-1.074676513671875,-0.865005373954773
1685921022455966200,5.45996630859375,11.088639259338379,-1.7688941955566406,-1.4682958126068115
1685921022465727200,5.469727294921875,10.303494453430176,-2.2764716148376465,-2.1361923217773438
1685921022475488300,5.47948828125,9.518050193786621,-2.6596224308013916,-2.5959134101867676
1685921022485248500,5.48924853515625,8.811868667602539,-2.882154941558838,-2.930908679962158
1685921022495008800,5.4990087890625,8.007580757141113,-2.9327032566070557,-2.9787650108337402
1685921022504769800,5.508769775390625,7.282256603240967,-2.9036903381347656,-2.890230655670166
1685921022514530600,5.518530517578125,6.470491409301758,-2.788834810256958,-2.741875648498535
1685921022524290800,5.528290771484375,5.630311489105225,-2.6979074478149414,-2.6174488067626953
1685921022534051000,5.538051025390625,5.031507968902588,-2.693121910095215,-2.5241286754608154
1685921022543812000,5.54781201171875,4.7371907234191895,-2.688336133956909,-2.4113669395446777
1685921022553573000,5.557572998046875,4.6989054679870605,-2.7864420413970947,-2.325225353240967
1685921022563333400,5.56733349609375,4.969294548034668,-2.9204399585723877,-2.2510478496551514
1685921022573093400,5.57709326171875,5.417051315307617,-3.0355947017669678,-2.2199411392211914
1685921022582854700,5.586854736328125,6.166603088378906,-3.0116662979125977,-1.973480463027954
1685921022592615400,5.596615478515625,7.1024956703186035,-2.9180471897125244,-1.6190435886383057
1685921022602375700,5.606375732421875,7.899903774261475,-2.685943365097046,-1.1617153882980347
1685921022612136000,5.616135986328125,8.536693572998047,-2.33389949798584,-0.7642077207565308
1685921022621897000,5.62589697265625,8.957830429077148,-1.927119493484497,-0.5201398134231567
1685921022631658000,5.635657958984375,9.154341697692871,-1.591825246810913,-0.4220340847969055
1685921022641418200,5.645418212890625,9.230911254882812,-1.3070793151855469,-0.41964125633239746
1685921022651178500,5.655178466796875,9.520742416381836,-1.1081759929656982,-0.4627120792865753
1685921022660939300,5.664939208984375,9.941879272460938,-1.0148558616638184,-0.5440680384635925
1685921022670700300,5.6747001953125,10.506884574890137,-1.1775678396224976,-0.5416752099990845
1685921022680460500,5.68446044921875,10.80867862701416,-1.374078392982483,-0.5416752099990845
1685921022690220800,5.694220703125,10.873285293579102,-1.3980066776275635,-0.5009972453117371
1685921022699981800,5.70398193359375,10.68425178527832,-1.2326027154922485,-0.38614174723625183
1685921022709742800,5.713742919921875,10.248459815979004,-0.7516453862190247,0.01615155301988125
1685921022719503000,5.723503173828125,9.728918075561523,0.009870393201708794,0.5835496187210083
1685921022729263000,5.73326318359375,9.355338096618652,0.7974081635475159,1.2203395366668701
1685921022739024100,5.743024169921875,8.888439178466797,1.532303810119629,1.7685949802398682
1685921022748785200,5.75278515625,8.275577545166016,2.0470597743988037,1.9983060359954834
1685921022758545400,5.76254541015625,7.732107162475586,2.289033889770508,1.833201289176941
1685921022768305700,5.7723056640625,7.33968448638916,2.2698912620544434,1.558026671409607
1685921022778066700,5.782066650390625,7.488039493560791,2.0231316089630127,1.1820544004440308
1685921022787827700,5.79182763671875,8.076972961425781,1.7431713342666626,0.8997012972831726
1685921022797588000,5.801587890625,8.66351318359375,1.5466607809066772,0.5859424471855164
1685921022807348000,5.811347900390625,9.19023323059082,1.3911272287368774,0.2626122832298279
1685921022817109000,5.82110888671875,9.671489715576172,1.1015957593917847,-0.08673982322216034
1685921022826870000,5.8308701171875,10.073484420776367,0.8404789566993713,-0.37417763471603394
1685921022836630300,5.84063037109375,10.351350784301758,0.7615157961845398,-0.5703890919685364
1685921022846390500,5.850390625,10.53799057006836,0.6849454641342163,-0.7283154129981995
1685921022856151600,5.860151611328125,10.547562599182129,0.6275177597999573,-0.7570292353630066
1685921022865912600,5.86991259765625,10.542776107788086,0.46480581164360046,-0.8195417523384094
1685921022875672800,5.8796728515625,10.672287940979004,0.35443684458732605,-0.8075776696205139
1685921022885432800,5.889432861328125,10.746465682983398,0.3927220106124878,-0.6278168559074402
1685921022895193900,5.89919384765625,11.447861671447754,0.2515454888343811,-0.776171863079071
1685921022904955000,5.908954833984375,11.354541778564453,-0.2679961323738098,-0.13220344483852386
1685921022914715100,5.918715087890625,11.385648727416992,1.3767703771591187,0.516550600528717
1685921022924475400,5.928475341796875,10.983354568481445,1.9226330518722534,1.0671988725662231
1685921022934236400,5.938236328125,10.451848983764648,2.11405873298645,1.3471591472625732
1685921022943997400,5.94799755859375,10.890034675598145,2.3632113933563232,1.3663017749786377
1685921022953757400,5.95775732421875,11.881261825561523,2.1454646587371826,1.3351950645446777
1685921022963517700,5.967517578125,11.35932731628418,1.7216359376907349,1.423729419708252
1685921022973278700,5.97727880859375,11.493325233459473,1.6761722564697266,0.9643075466156006
1685921022983039700,5.987039794921875,11.407183647155762,1.2906286716461182,0.9092726111412048
1685921022992800000,5.996800048828125,11.409576416015625,1.1015957593917847,0.8324031829833984
1685921023002560300,6.006560302734375,11.055139541625977,0.6227321028709412,0.5835496187210083
1685921023012321300,6.0163212890625,10.813464164733887,0.04576273262500763,0.545264482498169
1685921023022082300,6.026082275390625,10.212567329406738,-0.576670229434967,0.6314060688018799
1685921023031842300,6.03584228515625,9.357730865478516,-0.9143573641777039,0.605085015296936
1685921023041602600,6.0456025390625,8.79511833190918,-1.2687941789627075,0.4543372094631195
1685921023051363600,6.055363525390625,8.821439743041992,-1.472184181213379,0.5333003401756287
1685921023061124600,6.06512451171875,9.364909172058105,-1.6612170934677124,0.38255253434181213
1685921023070884900,6.074884765625,10.53081226348877,-1.7186448574066162,-0.129810631275177
1685921023080645000,6.08464501953125,12.11815071105957,-1.9007984399795532,-0.6397809386253357
1685921023090406100,6.09440625,13.593027114868164,-2.006082773208618,-1.3076776266098022
1685921023100167000,6.1041669921875,14.770894050598145,-2.1352951526641846,-2.1170499324798584
1685921023109927200,6.11392724609375,14.940784454345703,-2.6021945476531982,-2.796910524368286
1685921023119687400,6.1236875,14.181961059570312,-3.0092735290527344,-3.0556344985961914
1685921023129448400,6.133448486328125,12.640085220336914,-3.2557342052459717,-2.8998019695281982
1685921023139209500,6.14320947265625,10.6025972366333,-3.2389845848083496,-2.4472594261169434
1685921023148969700,6.1529697265625,8.574978828430176,-3.0714869499206543,-1.9061822891235352
1685921023158729700,6.162729736328125,6.683452606201172,-2.908475875854492,-1.4826527833938599
1685921023168491000,6.172490966796875,5.199304580688477,-2.520838737487793,-0.9032905697822571
1685921023178251800,6.182251708984375,4.406682014465332,-2.0156540870666504,-0.24975086748600006
1685921023188012000,6.192011962890625,4.344468593597412,-1.2302099466323853,0.44715872406959534
1685921023197772300,6.201772216796875,4.8233323097229,-0.09062815457582474,1.038485050201416
1685921023207533300,6.211533203125,5.927021503448486,0.8093722462654114,1.277767300605774
1685921023217294300,6.22129443359375,7.583752155303955,1.4318052530288696,1.495813250541687
1685921023227054600,6.2310546875,9.271589279174805,1.8699909448623657,1.5364912748336792
1685921023236814800,6.24081494140625,11.031211853027344,2.3512473106384277,1.5652050971984863
1685921023246575600,6.25057568359375,12.64726448059082,2.525923490524292,1.4814562797546387
1685921023256336600,6.260336669921875,13.87059497833252,2.535494804382324,1.215553879737854
1685921023266097000,6.270096923828125,14.526527404785156,2.5522444248199463,0.9571290612220764
1685921023275857200,6.279857177734375,14.560027122497559,2.353640079498291,0.7319046258926392
1685921023285618200,6.2896181640625,13.918451309204102,2.090130567550659,0.377766877412796
1685921023295379200,6.299379150390625,12.580265045166016,1.7790635824203491,-0.0077766734175384045
1685921023305139500,6.309139404296875,11.172388076782227,1.2475578784942627,-0.4914259612560272
1685921023314899500,6.3188994140625,9.695418357849121,0.5653043389320374,-0.8697910308837891
1685921023324660500,6.328660400390625,8.493622779846191,-0.20578274130821228,-1.3363914489746094
1685921023334421500,6.33842138671875,7.643572807312012,-0.7899305820465088,-1.7650058269500732
1685921023344181800,6.348181640625,6.93739128112793,-1.342971682548523,-1.9615163803100586
1685921023353942000,6.35794189453125,6.527919292449951,-1.74496591091156,-2.1433708667755127
1685921023363703000,6.367703125,6.381957054138184,-1.9797616004943848,-2.145763635635376
1685921023373464000,6.377464111328125,6.331707954406738,-2.2118654251098633,-2.1649062633514404
1685921023383224300,6.387224365234375,6.355636119842529,-2.3171496391296387,-2.059622049331665
1685921023392984300,6.396984375,6.475276947021484,-2.295614242553711,-1.9878374338150024
1685921023402745300,6.406745361328125,6.69063138961792,-2.2932214736938477,-1.8439689874649048
1685921023412506400,6.41650634765625,6.841678142547607,-2.140080690383911,-1.6764713525772095
1685921023422266600,6.4262666015625,7.049853801727295,-1.8649061918258667,-1.4778671264648438
1685921023432027000,6.43602685546875,7.2676005363464355,-1.5343974828720093,-1.2478569746017456
1685921023441788000,6.445787841796875,7.435397148132324,-1.2711870670318604,-1.1306086778640747
1685921023451549000,6.455548828125,7.535895824432373,-1.0962119102478027,-1.1210373640060425
1685921023461309200,6.46530908203125,7.681858062744141,-0.8784649968147278,-1.1617153882980347
1685921023471069200,6.475069091796875,7.919046401977539,-0.638883650302887,-1.1186445951461792
1685921023480830200,6.484830322265625,8.311469078063965,-0.35892340540885925,-1.0492527484893799
1685921023490591200,6.49459130859375,8.598907470703125,-0.004486542660742998,-0.8841479420661926
1685921023500351500,6.5043515625,8.926724433898926,0.4214358925819397,-0.6732804775238037
1685921023510111700,6.51411181640625,9.262018203735352,0.8404789566993713,-0.5368895530700684
1685921023519872800,6.523872802734375,9.599705696105957,1.2499507665634155,-0.36221352219581604
1685921023529633800,6.5336337890625,10.018449783325195,1.7383856773376465,-0.09870393574237823
1685921023539393800,6.543393798828125,10.506884574890137,2.1020946502685547,0.24107688665390015
1685921023549154000,6.553154052734375,10.997712135314941,2.2698912620544434,0.5739783048629761
1685921023558915000,6.5629150390625,11.24925708770752,2.394318103790283,0.6720840334892273
1685921023568676000,6.572676025390625,11.230114936828613,2.3871397972106934,0.5763711333274841
1685921023578436400,6.582436279296875,11.069497108459473,2.274677038192749,0.34187453985214233
1685921023588196600,6.592196533203125,11.102995872497559,2.063809633255005,0.0687936544418335
1685921023597957600,6.60195751953125,11.289935111999512,1.95852530002594,0.01375873014330864
1685921023607718700,6.61171875,11.766107559204102,1.9417755603790283,-0.048454657196998596
1685921023617479000,6.62147900390625,12.187542915344238,2.126322031021118,0.0687936544418335
1685921023627239000,6.631239013671875,12.556336402893066,2.4206392765045166,0.4854438900947571
1685921023637000000,6.641,13.001701354980469,2.7631118297576904,1.435693621635437
1685921023646761000,6.650760986328125,12.673584938049316,2.6407787799835205,1.857129454612732
1685921023656521200,6.660521240234375,11.960225105285645,2.5139594078063965,1.2275179624557495
1685921023666281500,6.670281494140625,12.082259178161621,2.344068765640259,0.8850452899932861
1685921023676042500,6.68004248046875,13.016057968139648,1.7790635824203491,1.0504491329193115
1685921023685803500,6.689803466796875,13.686347007751465,0.9601200819015503,0.9212366938591003
1685921023695563500,6.6995634765625,13.96391487121582,0.17976079881191254,0.545264482498169
1685921023705323800,6.70932373046875,13.899308204650879,-0.6149554252624512,0.14057832956314087
1685921023715084800,6.719084716796875,13.62891960144043,-1.256830096244812,-0.18723836541175842
1685921023724845800,6.728845703125,12.867403984069824,-1.709073543548584,-0.5273182988166809
1685921023734606000,6.738606201171875,11.67996597290039,-1.8864415884017944,-1.0085747241973877
1685921023744366300,6.748366455078125,10.272387504577637,-1.7641085386276245,-1.2885349988937378
1685921023754127400,6.75812744140625,9.10409164428711,-1.5080764293670654,-1.4276177883148193
1685921023763888400,6.767888427734375,8.148757934570312,-1.3262219429016113,-1.5951154232025146
1685921023773648400,6.7776484375,7.377969741821289,-1.2831511497497559,-1.7817555665969849
1685921023783408600,6.78740869140625,6.9684977531433105,-1.6277176141738892,-1.908575177192688
1685921023793169700,6.797169677734375,6.7316083908081055,-2.274078845977783,-2.097907304763794
1685921023802930700,6.8069306640625,6.484848499298096,-2.8797619342803955,-2.2749760150909424
1685921023812691000,6.81669091796875,6.350850582122803,-3.274876832962036,-2.430509567260742
1685921023822451200,6.826451171875,6.499205589294434,-3.4758739471435547,-2.461616277694702
1685921023832212200,6.836212158203125,6.743572235107422,-3.6197423934936523,-2.375474691390991
1685921023841973200,6.84597314453125,7.068996429443359,-3.6819558143615723,-2.1816561222076416
1685921023851733500,6.8557333984375,7.3277201652526855,-3.638885021209717,-1.9208383560180664
1685921023861493500,6.865493408203125,7.4210405349731445,-3.4136605262756348,-1.6669000387191772
1685921023871254500,6.875254638671875,7.724928855895996,-3.069094181060791,-1.353141188621521
1685921023881015600,6.885015625,7.93579626083374,-2.7433712482452393,-0.9726824164390564
1685921023890775800,6.89477587890625,8.330612182617188,-2.410768747329712,-0.6230311989784241
1685921023900536000,6.9045361328125,8.842975616455078,-2.11615252494812,-0.4124628007411957
1685921023910297000,6.914297119140625,9.379266738891602,-1.9247267246246338,-0.28085756301879883
1685921023920058000,6.92405810546875,9.95145034790039,-1.7425731420516968,-0.254536509513855
1685921023929818000,6.933818115234375,10.51645565032959,-1.7330018281936646,-0.17766708135604858
1685921023939578400,6.943578369140625,11.012068748474121,-1.8194425106048584,-0.1537388563156128
1685921023949339400,6.95333935546875,11.364112854003906,-1.8170497417449951,-0.11306086927652359
1685921023959100400,6.963100341796875,11.60100269317627,-1.8505492210388184,0.020937198773026466
1685921023968860700,6.972860595703125,11.605788230895996,-1.8023936748504639,0.19322042167186737
1685921023978621000,6.982620849609375,11.201102256774902,-1.6971094608306885,0.43998026847839355
1685921023988382000,6.9923818359375,10.41356372833252,-1.4530415534973145,0.5811567902565002
1685921023998143000,7.00214306640625,9.501300811767578,-1.1512467861175537,0.758225679397583
1685921024007903000,7.011903076171875,8.704191207885742,-0.8521439433097839,0.9044869542121887
1685921024017663200,7.021663330078125,8.060222625732422,-0.4666004180908203,1.2203395366668701
1685921024027424300,7.03142431640625,7.607680320739746,0.06729813665151596,1.5652050971984863
1685921024037185300,7.041185302734375,7.2676005363464355,0.6801598072052002,1.861915111541748
1685921024046945500,7.050945556640625,6.970890522003174,1.2738789319992065,2.11824631690979
1685921024056705800,7.060705810546875,6.8967132568359375,1.8005990982055664,2.2307088375091553
1685921024066466800,7.070466796875,7.059424877166748,2.0542383193969727,2.1756739616394043
1685921024076227800,7.080227783203125,7.41625452041626,2.1311075687408447,2.053640127182007
1685921024085987800,7.08998779296875,7.92861795425415,1.9226330518722534,1.735095500946045
1685921024095748000,7.099748046875,8.56301498413086,1.6307085752487183,1.399801254272461
1685921024105509000,7.109509033203125,9.216554641723633,1.3863415718078613,1.0528420209884644
1685921024115270100,7.119270263671875,9.75523853302002,1.257129192352295,0.7534400224685669
1685921024125030400,7.129030517578125,10.16710376739502,1.0824531316757202,0.4208376705646515
1685921024134790700,7.138790771484375,10.432706832885742,0.8213363885879517,0.09990034252405167
1685921024144551700,7.1485517578125,10.844571113586426,0.47676992416381836,-0.18963119387626648
1685921024154312700,7.158312744140625,11.136495590209961,0.14386846125125885,-0.43639102578163147
1685921024164072700,7.16807275390625,11.273185729980469,-0.11216355860233307,-0.6876373887062073
1685921024173833000,7.1778330078125,11.263614654541016,-0.33020952343940735,-0.9104689955711365
1685921024183594000,7.187593994140625,11.169995307922363,-0.4163511395454407,-0.9559326171875
1685921024193355000,7.19735498046875,10.92592716217041,-0.47617170214653015,-0.9391828775405884
1685921024203115300,7.207115234375,10.720144271850586,-0.363709032535553,-0.8123632669448853
1685921024212875500,7.21687548828125,10.435099601745605,-0.07866404205560684,-0.5991029739379883
1685921024222636500,7.226636474609375,10.29153060913086,0.11515458673238754,-0.376570463180542
1685921024232397600,7.2363974609375,10.140782356262207,0.30658039450645447,-0.2665006220340729
1685921024242157800,7.24615771484375,10.112068176269531,0.3975076675415039,-0.11066804826259613
1685921024251917800,7.255917724609375,10.145567893981934,0.47198426723480225,-0.10348957777023315
1685921024261678800,7.265678955078125,10.365707397460938,0.4911268353462219,0.020937198773026466
1685921024271440000,7.27543994140625,10.552348136901855,0.6227321028709412,0.24586252868175507
1685921024281200000,7.2852001953125,10.650753021240234,0.7878368496894836,0.5045864582061768
1685921024290960400,7.29496044921875,10.803893089294434,0.8763712644577026,0.7797610759735107
1685921024300721400,7.304721435546875,10.811071395874023,0.7950153350830078,1.069591760635376
1685921024310482400,7.314482421875,10.619346618652344,0.6251249313354492,1.397408366203308
1685921024320242400,7.324242431640625,10.207781791687012,0.39511483907699585,1.6633108854293823
1685921024330002700,7.334002685546875,9.779167175292969,0.30179476737976074,1.5675979852676392
1685921024339763700,7.343763671875,9.8509521484375,0.12711870670318604,1.5101702213287354
1685921024349524700,7.353524658203125,10.643275260925293,-0.03320041298866272,1.3495519161224365
1685921024359285000,7.363284912109375,11.883654594421387,-0.20578274130821228,1.0504491329193115
1685921024369045200,7.373045166015625,12.889238357543945,-0.3565305769443512,0.5045864582061768
1685921024378806300,7.38280615234375,13.947164535522461,-0.6101697683334351,-0.3334996700286865
1685921024388567300,7.3925673828125,14.775679588317871,-1.1727821826934814,-1.1425727605819702
1685921024398327600,7.40232763671875,14.998211860656738,-1.9821544885635376,-1.841576099395752
1685921024408087600,7.412087646484375,14.184353828430176,-2.8797619342803955,-2.404188632965088
1685921024417848600,7.4218486328125,12.513265609741211,-3.4519457817077637,-2.6724836826324463
1685921024427609600,7.431609619140625,10.255638122558594,-3.478266716003418,-2.591127872467041
1685921024437369900,7.441369873046875,8.105687141418457,-3.2318060398101807,-2.3994028568267822
1685921024447130000,7.451130126953125,6.2551374435424805,-2.949453115463257,-2.0931215286254883
1685921024456891100,7.46089111328125,4.722833633422852,-2.5256242752075195,-1.9304096698760986
1685921024466652200,7.470652099609375,3.7770705223083496,-1.989332914352417,-1.7315062284469604
1685921024476412400,7.480412353515625,3.583251953125,-1.4195420742034912,-1.2095718383789062
1685921024486172700,7.490172607421875,4.318147659301758,-0.6894320249557495,-0.6158527135848999
1685921024495933400,7.499933349609375,5.718846321105957,-0.05712864175438881,0.01375873014330864
1685921024505694500,7.509694580078125,7.519145965576172,0.3640081584453583,0.5333003401756287
1685921024515454700,7.519454833984375,9.1112699508667,0.6035895347595215,1.0145567655563354
1685921024525215000,7.529215087890625,10.698609352111816,0.8668000102043152,1.1174482107162476
1685921024534976000,7.53897607421875,12.101401329040527,1.2044870853424072,1.1102696657180786
1685921024544737000,7.548737060546875,13.346267700195312,1.4916257858276367,1.1222338676452637
1685921024554497300,7.558497314453125,14.332708358764648,1.8987047672271729,1.196411371231079
1685921024564257300,7.56825732421875,14.971891403198242,2.2459630966186523,1.459920883178711
1685921024574018600,7.5780185546875,14.995819091796875,2.439781904220581,1.6441682577133179
1685921024583779300,7.587779296875,14.107783317565918,2.4852454662323,1.4982060194015503
1685921024593539600,7.59753955078125,12.64726448059082,2.178964138031006,1.1102696657180786
1685921024603299800,7.6072998046875,10.980961799621582,1.5586248636245728,0.5644070506095886
1685921024613060900,7.617060791015625,9.5231351852417,0.9314061999320984,-0.005383851006627083
1685921024622822000,7.62682177734375,8.318648338317871,0.3927220106124878,-0.5105685591697693
1685921024632582100,7.63658203125,7.430611610412598,-0.20817556977272034,-0.9463613629341125
1685921024642342400,7.64634228515625,6.81296443939209,-0.6699903607368469,-1.23589289188385
1685921024652103400,7.656103515625,6.57338285446167,-0.9957132935523987,-1.5017952919006348
1685921024661864400,7.665864501953125,6.413064002990723,-1.4602199792861938,-1.6860426664352417
1685921024671624400,7.67562451171875,6.319743633270264,-1.831406593322754,-1.9181464910507202
1685921024681384700,7.685384765625,6.365207195281982,-2.0324037075042725,-2.0476579666137695
1685921024691145700,7.695145751953125,6.575775623321533,-2.2190439701080322,-2.0883359909057617
1685921024700906800,7.70490673828125,6.822535514831543,-2.30279278755188,-2.0859432220458984
1685921024710667000,7.7146669921875,7.16231632232666,-2.4011974334716797,-2.073979139328003
1685921024720427300,7.72442724609375,7.492825031280518,-2.4323041439056396,-1.9519450664520264
1685921024730188300,7.734188232421875,7.87358283996582,-2.3748764991760254,-1.810469388961792
1685921024739949000,7.743948974609375,8.091329574584961,-2.3315064907073975,-1.66929292678833
1685921024749709300,7.753709228515625,8.275577545166016,-2.21665096282959,-1.4371891021728516
1685921024759469600,7.763469482421875,8.543871879577637,-1.9510477781295776,-1.144965648651123
1685921024769230600,7.773230712890625,8.761619567871094,-1.6085749864578247,-0.8841479420661926
1685921024778991600,7.78299169921875,8.941081047058105,-1.2254242897033691,-0.5943173170089722
1685921024788752000,7.792751953125,9.226125717163086,-0.766002357006073,-0.2183450609445572
1685921024798512000,7.80251220703125,9.587740898132324,-0.24406790733337402,0.19800607860088348
1685921024808273200,7.812273193359375,9.977771759033203,0.16061821579933167,0.6218347549438477
1685921024818034200,7.8220341796875,10.17428207397461,0.4863412082195282,0.877866804599762
1685921024827794200,7.831794189453125,10.293923377990723,0.7734799385070801,1.0265209674835205
1685921024837554400,7.841554443359375,10.363314628601074,1.0274182558059692,1.210768222808838
1685921024847315500,7.8513154296875,10.50209903717041,1.2212368249893188,1.3304094076156616
1685921024857076500,7.861076416015625,10.528419494628906,1.4485549926757812,1.4213366508483887
1685921024866836700,7.870836669921875,10.581061363220215,1.6618152856826782,1.4069796800613403
1685921024876597000,7.880596923828125,10.643275260925293,1.8891334533691406,1.3854442834854126
1685921024886358000,7.89035791015625,10.815857887268066,2.1598215103149414,1.4452649354934692
1685921024896119000,7.900119140625,10.901999473571777,2.535494804382324,1.5484553575515747
1685921024905876000,7.9098759765625,10.882856369018555,2.9449665546417236,1.6202399730682373
1685921024915635700,7.9196357421875,10.897212982177734,3.3424742221832275,1.6752749681472778
1685921024925396700,7.929396728515625,10.83260726928711,3.6894333362579346,1.7063816785812378
1685921024935157800,7.93915771484375,10.69382381439209,3.7755749225616455,1.5675979852676392
1685921024944918000,7.94891796875,10.401599884033203,3.4142587184906006,1.25144624710083
1685921024954678300,7.95867822265625,10.140782356262207,2.973680257797241,0.7725825905799866
1685921024964439300,7.968439208984375,10.063913345336914,2.7224340438842773,0.2841476798057556
1685921024974200300,7.978200439453125,10.102497100830078,2.6312077045440674,-0.0771685317158699
1685921024983960600,7.987960693359375,10.250852584838867,2.696112871170044,-0.37417763471603394
1685921024993720600,7.997720458984375,10.921141624450684,2.964108943939209,-0.12741780281066895
1685921025003481600,8.007481689453124,11.309078216552734,2.533101797103882,0.547657310962677
1685921025013242600,8.01724267578125,10.748858451843262,1.9489539861679077,0.21954147517681122
1685921025023003000,8.0270029296875,10.473384857177734,1.688136339187622,-0.48903313279151917
1685921025032763100,8.03676318359375,10.736894607543945,0.7878368496894836,-0.8865407705307007
1685921025042524200,8.046524169921875,11.364112854003906,0.007477570790797472,-1.357926845550537
1685921025052285200,8.05628515625,12.22104263305664,-0.7061817646026611,-1.8248263597488403
1685921025062045400,8.06604541015625,13.221840858459473,-1.3884353637695312,-2.0476579666137695
1685921025071805400,8.075805419921876,14.040783882141113,-1.8936200141906738,-2.0787646770477295
1685921025081566500,8.08556640625,14.356637001037598,-2.298007011413574,-2.246262311935425
1685921025091327500,8.095327392578126,13.973485946655273,-2.599801778793335,-2.461616277694702
1685921025101087700,8.105087646484375,13.044772148132324,-2.664407968521118,-2.459223508834839
1685921025110848000,8.114847900390625,11.895618438720703,-2.4777679443359375,-2.2845473289489746
1685921025120609000,8.124609130859374,10.6025972366333,-2.386840581893921,-2.0093727111816406
1685921025130370000,8.1343701171875,9.101698875427246,-2.403590440750122,-1.8391833305358887
1685921025140130300,8.14413037109375,7.442575931549072,-2.528017044067383,-1.7793627977371216
1685921025149890600,8.153890625,5.970092296600342,-2.5639095306396484,-1.7458631992340088
1685921025159651600,8.163651611328126,4.83051061630249,-2.583052158355713,-1.822433590888977
1685921025169412400,8.173412353515625,4.162613868713379,-2.5399811267852783,-1.8032909631729126
1685921025179172600,8.183172607421875,4.083651065826416,-2.513660192489624,-1.8535401821136475
1685921025188932900,8.192932861328124,4.478765964508057,-2.606980323791504,-1.815255045890808
1685921025198694000,8.20269384765625,5.268696308135986,-2.812762975692749,-1.7075780630111694
1685921025208455000,8.212454833984374,6.314958095550537,-2.942274570465088,-1.449153184890747
1685921025218215200,8.222215087890625,7.358827114105225,-2.8630123138427734,-1.0492527484893799
1685921025227975400,8.231975341796876,8.275577545166016,-2.6500511169433594,-0.6684948205947876
1685921025237736400,8.241736328125,9.07537841796875,-2.441875457763672,-0.3358924686908722
1685921025247497500,8.25149755859375,9.74806022644043,-2.168794631958008,0.04486542567610741
1685921025257257500,8.261257568359374,10.53081226348877,-1.922333836555481,0.35862427949905396
1685921025267017700,8.271017822265625,11.095817565917969,-1.532004714012146,0.6098706722259521
1685921025276778800,8.28077880859375,11.531610488891602,-1.1799606084823608,0.7989036440849304
1685921025286539800,8.290539794921875,11.639287948608398,-0.8784649968147278,0.8300103545188904
1685921025296300000,8.300300048828126,11.47657585144043,-0.7707880139350891,0.7438687682151794
1685921025306060300,8.310060302734374,10.858928680419922,-0.6771687865257263,0.547657310962677
1685921025315821300,8.3198212890625,10.147960662841797,-0.7372884750366211,0.3275175988674164
1685921025325582300,8.329582275390624,9.460622787475586,-0.9430712461471558,0.11904292553663254
1685921025335342600,8.339342529296875,8.88125991821289,-1.0268200635910034,-0.09631111472845078
1685921025345102600,8.3491025390625,8.474480628967285,-1.1177473068237305,-0.3646063506603241
1685921025354863600,8.358863525390625,8.091329574584961,-1.2182458639144897,-0.21595224738121033
1685921025364624600,8.368624755859376,7.926225185394287,-1.1991032361984253,-0.18005990982055664
1685921025374385000,8.378385009765625,7.779963493347168,-1.0220344066619873,-0.005383851006627083
1685921025384146400,8.388146484375,7.746464252471924,-0.8928219676017761,0.3032902777194977
1685921025393907200,8.3979072265625,7.931010723114014,-0.5886343717575073,0.545264482498169
1685921025403668200,8.407668212890625,8.41465950012207,-0.3086741268634796,0.7677969932556152
1685921025413428500,8.417428466796874,8.840581893920898,-0.19381862878799438,0.973878800868988
1685921025423188700,8.427188720703125,9.17587661743164,-0.09062815457582474,1.0815558433532715
1685921025432949800,8.43694970703125,9.566205978393555,-0.00687936507165432,1.2059825658798218
1685921025442710800,8.446710693359375,9.953843116760254,0.134297177195549,1.373480200767517
1685921025452471000,8.456470947265625,10.236495018005371,0.25633111596107483,1.459920883178711
1685921025462231300,8.466231201171874,10.475777626037598,0.39511483907699585,1.428515076637268
1685921025471992300,8.475992431640625,10.784750938415527,0.5461617708206177,1.3950155973434448
1685921025481753000,8.485753173828124,11.165209770202637,0.5916253924369812,1.4838491678237915
1685921025491513300,8.495513427734375,11.385648727416992,0.5868397355079651,1.4527424573898315
1685921025501273600,8.505273681640626,11.553146362304688,0.6203392744064331,1.4982060194015503
1685921025511034600,8.51503466796875,11.586645126342773,0.8045865893363953,1.531705617904663
1685921025520795600,8.524795654296875,11.586645126342773,1.0010972023010254,1.6633108854293823
1685921025530556000,8.534555908203124,11.634501457214355,1.4294124841690063,1.916949987411499
1685921025540316200,8.544316162109375,11.648859024047852,1.7647067308425903,2.1828525066375732
1685921025550077200,8.5540771484375,11.534003257751465,2.0303099155426025,2.347957134246826
1685921025559838200,8.563838134765625,11.273185729980469,1.867598056793213,2.2019951343536377
1685921025569598500,8.573598388671876,10.94028377532959,1.5035899877548218,1.8786648511886597
1685921025579358500,8.5833583984375,10.844571113586426,1.080060362815857,1.4934204816818237
1685921025589119500,8.593119384765625,10.875678062438965,0.4576273262500763,1.2849457263946533
1685921025598880500,8.602880615234374,10.892427444458008,0.014656038954854012,0.9260223507881165
1685921025608640800,8.612640869140625,10.71535873413086,-0.26560330390930176,0.667298436164856
1685921025618401000,8.622401123046876,10.372885704040527,-0.5790630578994751,0.545264482498169
1685921025628162000,8.632162109375,9.925128936767578,-0.7229315638542175,0.497408002614975
1685921025637923000,8.641923095703126,9.513264656066895,-0.7109674215316772,0.38255253434181213
1685921025647683300,8.651683349609375,9.63081169128418,-0.5862415432929993,0.1860419660806656
1685921025657443300,8.661443359375,10.444670677185059,-0.5718846321105957,0.20757736265659332
1685921025667204400,8.671204345703124,11.208579063415527,-0.6918248534202576,0.19800607860088348
1685921025676965400,8.68096533203125,11.826227188110352,-0.976570725440979,-0.23030917346477509
1685921025686725600,8.6907255859375,12.237792015075684,-1.4051851034164429,-0.7498508095741272
1685921025696486000,8.70048583984375,12.508480072021484,-2.037189483642578,-1.176072359085083
1685921025706247000,8.710246826171876,12.506087303161621,-2.664407968521118,-1.5999010801315308
1685921025716008000,8.720008056640625,12.237792015075684,-3.2294132709503174,-1.9232312440872192
1685921025725768200,8.729768310546875,11.500503540039062,-3.5814573764801025,-2.0572292804718018
1685921025735528400,8.739528564453124,10.437492370605469,-3.4567313194274902,-1.9037895202636719
1685921025745289500,8.74928955078125,9.350552558898926,-3.093022346496582,-1.4587244987487793
1685921025755050200,8.75905029296875,8.419445991516113,-2.733799934387207,-0.8841479420661926
1685921025764810500,8.768810546875,7.375576496124268,-2.480160713195801,-0.3454637825489044
1685921025774570800,8.77857080078125,6.6020965576171875,-2.144866466522217,0.16929219663143158
1685921025784331800,8.788331787109374,6.080162525177002,-1.7521443367004395,0.6409773826599121
1685921025794092800,8.7980927734375,5.955735683441162,-1.3812568187713623,1.3088740110397339
1685921025803853000,8.80785302734375,6.096911907196045,-1.0459625720977783,1.9025931358337402
1685921025813613300,8.81761328125,6.673881530761719,-0.6652047038078308,2.4269204139709473
1685921025823374300,8.827374267578126,7.411468982696533,-0.20338992774486542,2.8124639987945557
1685921025833135400,8.83713525390625,8.335397720336914,0.28504499793052673,3.0972096920013428
1685921025842895400,8.846895263671875,9.407979965209961,0.6251249313354492,3.4085757732391357
1685921025852655600,8.856655517578124,10.636096954345703,0.8739784955978394,3.6167514324188232
1685921025862416600,8.866416748046875,11.874083518981934,1.0561320781707764,3.6358940601348877
1685921025872177700,8.876177734375,12.790833473205566,1.048953652381897,3.4372897148132324
1685921025881938000,8.88593798828125,13.307982444763184,1.0680961608886719,3.0326035022735596
1685921025891698200,8.8956982421875,13.374980926513672,1.0322039127349854,2.5298118591308594
1685921025901459200,8.905459228515625,12.774084091186523,1.0345966815948486,2.070389747619629
1685921025911220200,8.91522021484375,11.854940414428711,0.7782655358314514,1.550848126411438
1685921025920980500,8.92498046875,10.763215065002441,0.4046861231327057,1.0504491329193115
1685921025930740500,8.934740478515625,9.7097749710083,0.0768694281578064,0.5763711333274841
1685921025940501500,8.94450146484375,8.814261436462402,-0.19621145725250244,0.06400800496339798
1685921025950262500,8.954262451171875,8.043473243713379,-0.42352959513664246,-0.39092740416526794
1685921025960022800,8.964022705078126,7.581359386444092,-0.6771687865257263,-0.8147560954093933
1685921025969783000,8.973782958984375,7.274778842926025,-0.91914302110672,-1.085145115852356
1685921025979544000,8.9835439453125,7.121638298034668,-1.0890333652496338,-1.3076776266098022
1685921025989305000,8.99330517578125,7.116852760314941,-1.2302099466323853,-1.5257235765457153
1685921025999065300,9.0030654296875,7.2798638343811035,-1.3764712810516357,-1.6046867370605469
1685921026008825600,9.01282568359375,7.4210405349731445,-1.4985052347183228,-1.6310077905654907
1685921026018586400,9.02258642578125,7.607680320739746,-1.445863127708435,-1.573580026626587
1685921026028347400,9.032347412109376,7.717750549316406,-1.3692927360534668,-1.4515460729599
1685921026038107600,9.042107666015625,7.791927814483643,-1.1057831048965454,-1.2550355195999146
1685921026047868000,9.051867919921875,7.966903209686279,-0.7707880139350891,-1.0037890672683716
1685921026057629000,9.06162890625,8.26121997833252,-0.4378865361213684,-0.7115656137466431
1685921026067390000,9.071389892578125,8.40030288696289,0.0026919255033135414,-0.4507479667663574
1685921026077150200,9.081150146484376,8.613264083862305,0.37597227096557617,-0.2183450609445572
1685921026086910500,9.090910400390625,8.826225280761719,0.7328019142150879,0.11186445504426956
1685921026096671500,9.10067138671875,9.08255672454834,1.072881817817688,0.392123818397522
1685921026106432300,9.110432373046875,9.33858871459961,1.3743774890899658,0.6457630395889282
1685921026116192500,9.120192626953125,9.60927677154541,1.474876046180725,0.8659027218818665
1685921026125952800,9.129952880859374,9.74806022644043,1.5346965789794922,0.973878800868988
1685921026135713800,9.1397138671875,9.929914474487305,1.561316728591919,0.9260223507881165
1685921026145474800,9.149474853515626,10.011270523071289,1.5852450132369995,0.7151548862457275
1685921026155235000,9.159235107421875,10.06869888305664,1.6163517236709595,0.5524429082870483
1685921026164995300,9.168995361328125,9.903594017028809,1.6977076530456543,0.48783671855926514
1685921026174756400,9.17875634765625,9.898808479309082,1.7599210739135742,0.48065826296806335
1685921026184517400,9.188517333984375,10.078269958496094,1.597209095954895,0.392123818397522
1685921026194277600,9.198277587890624,10.49970531463623,1.1159526109695435,0.21236300468444824
1685921026204037600,9.20803759765625,11.059925079345703,0.23001007735729218,-0.012562318705022335
1685921026213798700,9.217798583984376,11.744571685791016,-0.6532405614852905,-0.44835513830184937
1685921026223559700,9.2275595703125,12.295220375061035,-0.8162516355514526,-1.7362918853759766
1685921026233320000,9.23731982421875,11.390434265136719,-0.5790630578994751,-2.186441659927368
1685921026243080200,9.247080078125,9.889236450195312,-0.4331009089946747,-1.750648856163025
1685921026252841200,9.25684130859375,8.936295509338379,-0.1986042857170105,-1.5448660850524902
1685921026262602200,9.266602294921874,8.67069149017334,0.46719861030578613,-1.6166508197784424
1685921026272362500,9.276362548828125,7.610073089599609,0.16301104426383972,-1.38933265209198
1685921026282122800,9.286122802734376,7.610073089599609,0.27308088541030884,-1.2574282884597778
1685921026291883800,9.2958837890625,8.112865447998047,0.31854450702667236,-1.4108680486679077
1685921026301644500,9.30564453125,8.77358341217041,0.11994023621082306,-1.3725829124450684
1685921026311404800,9.31540478515625,9.154341697692871,-0.08823533356189728,-1.1473584175109863
1685921026321165000,9.3251650390625,9.628418922424316,-0.16031911969184875,-0.9224331378936768
1685921026330926000,9.334926025390626,10.770393371582031,0.031405795365571976,-0.654137909412384
1685921026340687000,9.34468701171875,12.264113426208496,0.41904306411743164,-0.46031925082206726
1685921026350447400,9.354447265625,13.803595542907715,0.8524430394172668,-0.026919255033135414
1685921026360207600,9.36420751953125,14.976676940917969,1.0633105039596558,0.667298436164856
1685921026369968600,9.37396875,15.512968063354492,1.1925230026245117,1.2179467678070068
1685921026379729700,9.383729736328124,15.197115898132324,1.3624134063720703,1.3304094076156616
1685921026389489700,9.39348974609375,14.16281795501709,1.438983678817749,1.2945170402526855
1685921026399250000,9.40325,12.695120811462402,1.3145569562911987,1.1485549211502075
1685921026409011000,9.413010986328125,11.14367389678955,1.0896315574645996,0.8012964725494385
1685921026418772000,9.42277197265625,9.86530876159668,0.890728235244751,0.37058842182159424
1685921026428532200,9.4325322265625,9.037093162536621,0.5198407173156738,-0.019740786403417587
1685921026438292500,9.44229248046875,8.627620697021484,0.033798620104789734,-0.3646063506603241
1685921026448053500,9.452053466796874,8.53190803527832,-0.6532405614852905,-0.7618148922920227
1685921026457814500,9.461814453125,8.455337524414062,-1.2592228651046753,-1.207179069519043
1685921026467574800,9.47157470703125,8.297112464904785,-1.8337994813919067,-1.66929292678833
1685921026477334800,9.481334716796875,8.227720260620117,-2.379662036895752,-2.0213370323181152
1685921026487095800,9.491095703125,8.086544036865234,-2.717050075531006,-2.286940336227417
1685921026496856800,9.50085693359375,7.7440714836120605,-2.8342983722686768,-2.373081922531128
1685921026506617000,9.5106171875,7.202994346618652,-2.827120065689087,-2.2654049396514893
1685921026516377300,9.52037744140625,6.501598358154297,-2.764906644821167,-2.162513494491577
1685921026526138400,9.530138427734375,6.008377552032471,-2.6596224308013916,-1.9974087476730347
1685921026535899400,9.5398994140625,5.697310924530029,-2.6021945476531982,-1.877468466758728
1685921026545659600,9.54965966796875,5.907878875732422,-2.688336133956909,-1.664507269859314
1685921026555420000,9.559419921875,6.570990085601807,-2.8630123138427734,-1.444367527961731
1685921026565181000,9.569180908203125,7.5406813621521,-2.812762975692749,-1.2191431522369385
1685921026574941700,9.578941650390625,8.512765884399414,-2.575873613357544,-0.8171489238739014
1685921026584702000,9.588701904296874,10.3681001663208,-1.287936806678772,-1.1330015659332275
1685921026594462200,9.598462158203125,9.139984130859375,-0.6699903607368469,0.5907281041145325
1685921026604223200,9.60822314453125,9.494122505187988,-0.25363919138908386,1.5843477249145508
1685921026613984300,9.617984375,10.607382774353027,0.47676992416381836,1.2945170402526855
1685921026623744500,9.62774462890625,11.397612571716309,0.8213363885879517,0.88025963306427
1685921026633504800,9.6375048828125,12.055937767028809,0.46719861030578613,0.7223333120346069
1685921026643265800,9.647265869140625,12.52283763885498,-0.13878370821475983,0.48783671855926514
1685921026653026800,9.65702685546875,12.664013862609863,-0.768395185470581,0.15493527054786682
1685921026662787000,9.666787109375,12.431910514831543,-1.316650629043579,-0.4387838542461395
1685921026672547000,9.676547119140626,11.672786712646484,-1.6109678745269775,-0.989432156085968
1685921026682308000,9.68630810546875,10.511670112609863,-1.7042878866195679,-1.333998680114746
1685921026692069000,9.696069091796875,9.559027671813965,-1.5966109037399292,-1.5065809488296509
1685921026701829400,9.705829345703124,9.269196510314941,-1.043569803237915,-1.7793627977371216
1685921026711589600,9.715589599609375,8.086544036865234,-1.280758261680603,-0.6900302171707153
1685921026721350700,9.7253505859375,7.825427532196045,-1.0818549394607544,-0.6421737670898438
1685921026731111700,9.735111572265625,7.727321624755859,-0.6556333899497986,-0.5703890919685364
1685921026740872000,9.744871826171876,7.645965576171875,-0.4163511395454407,-0.2641077935695648
1685921026750632000,9.7546318359375,7.732107162475586,-0.2584248483181,-0.01734796352684498
1685921026760393200,9.764393310546875,7.9381890296936035,-0.12442677468061447,0.29371899366378784
1685921026770154000,9.774154052734374,8.292326927185059,-0.08584251254796982,0.5333003401756287
1685921026779914200,9.783914306640625,8.608478546142578,0.055334024131298065,0.6505486369132996
1685921026789674500,9.793674560546876,8.857332229614258,0.1534397453069687,0.6002993583679199
1685921026799435500,9.803435546875,9.161520004272461,0.10319047421216965,0.4615156650543213
1685921026809196500,9.813196533203126,9.633204460144043,0.04576273262500763,0.3490529954433441
1685921026818956800,9.822956787109375,9.860523223876953,-0.05952146276831627,0.21954147517681122
1685921026828717000,9.832717041015625,9.96580696105957,-0.0930209830403328,0.10229317098855972
1685921026838478000,9.84247802734375,10.262816429138184,-0.14117653667926788,-0.0029910283628851175
1685921026848239000,9.852239013671875,10.48534870147705,-0.17706887423992157,-0.1010967567563057
1685921026857999000,9.8619990234375,10.597811698913574,-0.14356936514377594,-0.09870393574237823
1685921026867759400,9.87175927734375,10.645967483520508,-0.20578274130821228,-0.17527425289154053
1685921026877520400,9.881520263671876,10.547562599182129,-0.2392822653055191,-0.2760719060897827
1685921026887281400,9.891281494140625,10.459028244018555,-0.2153540402650833,-0.3717848062515259
1685921026897041700,9.901041748046875,10.480563163757324,-0.24406790733337402,-0.393320232629776
1685921026906802000,9.910802001953124,10.748858451843262,-0.2991028428077698,-0.27846473455429077
1685921026916563000,9.92056298828125,10.973783493041992,-0.363709032535553,-0.09152546525001526
1685921026926324000,9.930323974609376,11.014461517333984,-0.35892340540885925,-0.014955141581594944
1685921026936084200,9.940084228515625,10.870892524719238,-0.2799602448940277,0.004187439568340778
1685921026945844200,9.94984423828125,10.631311416625977,-0.34217363595962524,0.008973085321485996
1685921026955605500,9.95960546875,10.451848983764648,-0.3613162338733673,0.1094716340303421
1685921026965366300,9.9693662109375,10.080662727355957,-0.42352959513664246,0.28893333673477173
1685921026975126500,9.97912646484375,9.714560508728027,-0.27038896083831787,0.392123818397522
1685921026984886800,9.98888671875,10.025628089904785,-0.1339980661869049,0.5428716540336609
1685921026994647800,9.998647705078126,10.961819648742676,0.012263216078281403,0.7821539044380188
1685921027004408800,10.008408935546875,11.914761543273926,0.055334024131298065,1.0408778190612793
1685921027014169000,10.018169189453126,12.740584373474121,-0.018843477591872215,0.88025963306427
1685921027023929300,10.027929443359374,13.461421966552734,-0.23210379481315613,0.4447658956050873
1685921027033690400,10.0376904296875,13.942378997802734,-0.6364908218383789,-0.26171496510505676
1685921027043451400,10.047451416015624,14.112568855285645,-1.4003994464874268,-1.0372886657714844
1685921027053211400,10.05721142578125,13.750953674316406,-2.2932214736938477,-1.8343976736068726
1685921027062971600,10.0669716796875,12.721441268920898,-3.004487991333008,-2.3874387741088867
1685921027072732700,10.076732666015625,11.131710052490234,-3.2222347259521484,-2.897409200668335
1685921027082493700,10.08649365234375,9.388837814331055,-3.0571300983428955,-2.883052110671997
1685921027092254000,10.09625390625,7.9860453605651855,-2.6572296619415283,-2.5241286754608154
1685921027102014200,10.10601416015625,7.016354084014893,-2.250150680541992,-2.0644078254699707
1685921027111775200,10.115775146484374,6.377171516418457,-1.740180253982544,-1.4467604160308838
1685921027121536300,10.125536376953125,6.288637161254883,-1.1440683603286743,-0.6804589629173279
1685921027131296500,10.135296630859376,6.563811779022217,-0.4953143000602722,0.1908276081085205
1685921027141056500,10.145056396484375,7.214958667755127,0.014656038954854012,0.9475577473640442
1685921027150817800,10.15481787109375,8.23250675201416,0.3089732229709625,1.6920247077941895
1685921027160578600,10.16457861328125,9.041878700256348,0.5318048596382141,2.0823538303375244
1685921027170338800,10.1743388671875,9.642776489257812,0.582054078578949,2.108675003051758
1685921027180099000,10.18409912109375,10.12881851196289,0.4695914387702942,1.9145572185516357
1685921027189860000,10.193860107421875,10.423135757446289,0.3161516785621643,1.6680965423583984
1685921027199621000,10.20362109375,10.593026161193848,0.1055833026766777,1.3232308626174927
1685921027209381400,10.21338134765625,10.62413215637207,-0.3278166949748993,0.9212366938591003
1685921027219141600,10.2231416015625,10.576275825500488,-0.6990033388137817,0.5907281041145325
1685921027228902700,10.232902587890624,10.116853713989258,-0.9119645357131958,0.2147558331489563
1685921027238663700,10.24266357421875,9.434301376342773,-0.6317051649093628,-0.35024940967559814
1685921027248423700,10.252423583984376,8.606085777282715,-0.7420741319656372,-0.867398202419281
1685921027258184000,10.262183837890625,6.714559555053711,-0.91914302110672,-0.7809575200080872
1685921027267945000,10.271945068359376,4.456931114196777,-0.3900300860404968,-0.48424747586250305
1685921027277706000,10.2817060546875,3.4707891941070557,-0.1866401731967926,-1.23589289188385
1685921027287466200,10.29146630859375,2.0150556564331055,0.5940182209014893,-0.773779034614563
1685921027297226500,10.3012265625,1.0740783214569092,1.3767703771591187,-0.08434699475765228
1685921027306987500,10.310987548828125,1.28255295753479,1.6498512029647827,-0.11545369029045105
1685921027316748500,10.32074853515625,0.25064817070961,1.6067804098129272,0.36340993642807007
1685921027326508800,10.3305087890625,0.15972091257572174,1.6618152856826782,0.5117649435997009
1685921027336269000,10.34026904296875,-0.08464609831571579,-0.021236300468444824,0.2721835672855377
1685921027346030000,10.350030029296875,-0.03200400248169899,-0.04755735024809837,0.28893333673477173
1685921027355790800,10.359790771484375,-0.027218356728553772,-0.03320041298866272,0.267397940158844
1685921027365551000,10.369551025390624,0.001794616924598813,-0.06430710852146149,0.2721835672855377
1685921027375311400,10.379311279296875,0.03290131315588951,-0.03798605874180794,0.26500511169433594
1685921027385072400,10.389072265625,0.008973085321485996,-0.03559323772788048,0.2602194547653198
1685921027394833400,10.39883349609375,0.047258246690034866,-0.03080759197473526,0.26500511169433594
1685921027404593700,10.40859375,0.05922235921025276,-0.03559323772788048,0.2554338276386261
1685921027414354000,10.41835400390625,0.03768695518374443,0.012263216078281403,0.2602194547653198
1685921027424115000,10.428114990234375,0.08793623000383377,-0.02841476909816265,0.26979073882102966
1685921027433876000,10.4378759765625,0.12622138857841492,-0.002093719784170389,0.23629122972488403
1685921027443636200,10.44763623046875,0.11186445504426956,-0.00687936507165432,0.27696922421455383
1685921027453396200,10.457396240234376,0.13579268753528595,0.009870393201708794,0.3008974492549896
1685921027463157200,10.4671572265625,0.16689938306808472,-0.018843477591872215,0.24825534224510193
1685921027472918300,10.476918212890626,0.2315055876970291,-0.03559323772788048,0.25304099917411804
1685921027482678500,10.486678466796874,0.23389841616153717,0.005084747914224863,0.25304099917411804
1685921027492438800,10.496438720703125,0.22432711720466614,0.03858426585793495,0.25782662630081177
1685921027502199800,10.50619970703125,0.23629122972488403,0.01704886183142662,0.24825534224510193
1685921027511960800,10.5159609375,0.30568310618400574,0.031405795365571976,0.23629122972488403
1685921027521721000,10.52572119140625,0.3008974492549896,0.014656038954854012,0.25304099917411804
1685921027531481300,10.5354814453125,0.32961133122444153,-0.023629123345017433,0.22193430364131927
1685921027541242400,10.545242431640625,0.32961133122444153,-0.011665010824799538,0.2602194547653198
1685921027551003100,10.555003173828124,0.3798605799674988,-0.02841476909816265,0.22911277413368225
1685921027560763400,10.564763427734375,0.4133601188659668,0.0026919255033135414,0.21714866161346436
1685921027570523600,10.574523681640626,0.389431893825531,0.005084747914224863,0.2147558331489563
1685921027580284700,10.58428466796875,0.4181457459926605,0.014656038954854012,0.16929219663143158
1685921027590045700,10.594045654296876,0.4013960063457489,-0.004486542660742998,0.24825534224510193
1685921027599806000,10.603805908203125,0.4468596279621124,-0.009272187948226929,0.20757736265659332
1685921027609566200,10.613566162109375,0.43489551544189453,-0.05234299600124359,0.20039889216423035
1685921027619327200,10.6233271484375,0.5018945336341858,-0.00687936507165432,0.19561325013637543
1685921027629088300,10.633088134765625,0.4995017349720001,0.007477570790797472,0.17647066712379456
1685921027638848500,10.6428486328125,0.5548357367515564,-0.002093719784170389,0.24107688665390015
1685921027648608500,10.6526083984375,0.5907281041145325,-0.03559323772788048,0.15493527054786682
1685921027658369500,10.66236962890625,0.6074778437614441,-0.004486542660742998,0.19800607860088348
1685921027668130600,10.672130615234375,0.6649056077003479,-0.011665010824799538,0.19322042167186737
1685921027677890800,10.681890869140625,0.6553342938423157,-0.040378883481025696,0.17647066712379456
1685921027687651000,10.691651123046874,0.91136634349823,-0.03559323772788048,0.1740778535604477
1685921027697412000,10.701412109375,6.8033928871154785,-2.4538395404815674,0.2841476798057556
1685921027707173000,10.711173095703124,78.52555847167969,-20.03121566772461,75.32485961914062
1685921027716933400,10.720933349609375,78.52555847167969,-19.38964080810547,78.53782653808594
1685921027726693600,10.730693603515626,7.124031066894531,-19.509281158447266,-6.996314525604248
1685921027736454700,10.74045458984375,-8.169395446777344,-6.547659873962402,-10.067801475524902
1685921027746215700,10.750215576171875,-3.5656049251556396,-2.0395822525024414,-7.5326056480407715
1685921027755976000,10.759975830078124,-0.6807580590248108,-0.5910272002220154,-5.040181636810303
1685921027765736200,10.769736083984375,1.1003992557525635,0.007477570790797472,-3.984348773956299
1685921027775497000,10.7794970703125,3.1498517990112305,0.8261220455169678,-3.630211114883423
1685921027785258000,10.789258056640625,6.405885219573975,2.4421746730804443,-2.660519599914551
1685921027795018200,10.799018310546876,8.53908634185791,3.232105255126953,-0.8626125454902649
1685921027804778500,10.808778564453124,9.520742416381836,2.5857439041137695,0.636191725730896
1685921027814539500,10.81853955078125,9.977771759033203,0.47916272282600403,1.4623137712478638
1685921027824300500,10.828300537109374,10.705787658691406,-1.1464611291885376,1.6944174766540527
1685921027834060800,10.838060791015625,11.024032592773438,-1.5655041933059692,1.7638094425201416
1685921027843821000,10.847821044921876,10.724929809570312,-0.6771687865257263,1.0552347898483276
1685921027853582000,10.85758203125,9.350552558898926,0.014656038954854012,0.06400800496339798
1685921027863343000,10.867343017578126,8.639585494995117,-0.05712864175438881,0.052043892443180084
1685921027873103000,10.87710302734375,9.836594581604004,-0.45224347710609436,0.6577271223068237
1685921027882863400,10.88686328125,10.303494453430176,-0.30149564146995544,0.914058268070221
1685921027892624400,10.896624267578124,9.688240051269531,-0.1866401731967926,0.7175477147102356
1685921027902385400,10.906385498046875,9.482157707214355,-0.275174617767334,0.483051061630249
1685921027912145700,10.916145751953126,9.795916557312012,-0.380458801984787,0.5548357367515564
1685921027921906000,10.925906005859375,9.803094863891602,-0.2799602448940277,0.8730811476707458
1685921027931667000,10.9356669921875,9.700203895568848,-0.2560320198535919,0.6744768619537354
1685921027941428000,10.945427978515625,9.669096946716309,-0.2105683982372284,0.46390849351882935
1685921027951188200,10.955188232421875,9.74088191986084,-0.2847459018230438,0.5715855360031128
1685921027960948500,10.964948486328124,9.795916557312012,-0.3326023519039154,0.7534400224685669
1685921027970709500,10.97470947265625,9.695418357849121,-0.2847459018230438,0.667298436164856
1685921027980470300,10.98447021484375,9.652347564697266,-0.19621145725250244,0.605085015296936
1685921027990230500,10.99423046875,9.7097749710083,-0.26560330390930176,0.547657310962677
1685921027999990800,11.00399072265625,9.745667457580566,-0.32303106784820557,0.638584554195404
1685921028009751800,11.013751708984374,9.73370361328125,-0.28235307335853577,0.7007979154586792
1685921028019512800,11.023512939453125,9.671489715576172,-0.23449662327766418,0.6194419860839844
1685921028029273000,11.033273193359374,9.73370361328125,-0.2799602448940277,0.5380859971046448
1685921028039033300,11.043033447265625,9.731310844421387,-0.2871387302875519,0.6433702111244202
1685921028048794400,11.05279443359375,9.767203330993652,-0.2847459018230438,0.6744768619537354
1685921028058555400,11.062555419921875,9.704989433288574,-0.2560320198535919,0.7199404835700989
1685921028068315600,11.072315673828125,9.697811126708984,-0.09062815457582474,0.7606185078620911
1685921028078075600,11.08207568359375,9.75523853302002,-0.16510476171970367,0.5404788255691528
1685921028087836700,11.091836669921875,9.635597229003906,-0.7085745930671692,0.30568310618400574
1685921028097597700,11.10159765625,9.905986785888672,-0.4570291340351105,0.6553342938423157
1685921028107358000,11.11135791015625,9.731310844421387,0.04336991161108017,0.7103692293167114
1685921028117118200,11.1211181640625,9.59492015838623,-0.09062815457582474,0.636191725730896
1685921028126879200,11.130879150390625,9.84855842590332,-0.3924229145050049,0.636191725730896
1685921028136640300,11.14064013671875,9.760024070739746,-0.48574298620224,0.5955137610435486
1685921028146400500,11.150400390625,9.64038372039795,-0.23210379481315613,0.6194419860839844
1685921028156160800,11.160160888671875,9.7097749710083,-0.023629123345017433,0.6553342938423157
1685921028165921800,11.169921875,9.707382202148438,-0.3158525824546814,0.6266204118728638
1685921028175682800,11.179682861328125,9.738489151000977,-0.5383850932121277,0.5955137610435486
1685921028185443000,11.189443115234376,9.764810562133789,-0.22492532432079315,0.6577271223068237
1685921028195203300,11.199203369140625,9.673882484436035,-0.10259227454662323,0.6433702111244202
1685921028204964000,11.208964111328125,9.73370361328125,-0.2991028428077698,0.6481558084487915
1685921028214725000,11.21872509765625,9.781559944152832,-0.40677985548973083,0.6122635006904602
1685921028224485400,11.2284853515625,9.704989433288574,-0.2799602448940277,0.636191725730896
1685921028234245600,11.23824560546875,9.71695327758789,-0.17228323221206665,0.6864410042762756
1685921028244006700,11.248006591796875,9.712167739868164,-0.28953152894973755,0.6218347549438477
1685921028253767700,11.257767578125,9.764810562133789,-0.36610186100006104,0.6290132403373718
1685921028263528000,11.26752783203125,9.731310844421387,-0.32303106784820557,0.6481558084487915
1685921028273288200,11.2772880859375,9.700203895568848,-0.2512463629245758,0.5979065299034119
1685921028283049200,11.28704931640625,9.7097749710083,-0.26560330390930176,0.6553342938423157
1685921028292810200,11.296810302734375,9.743274688720703,-0.3158525824546814,0.669691264629364
1685921028302570500,11.306570556640626,9.731310844421387,-0.2919243574142456,0.6960122585296631
1685921028312330500,11.31633056640625,9.73370361328125,-0.3517449200153351,0.669691264629364
1685921028322091500,11.326091552734376,9.75523853302002,-0.2847459018230438,0.6792625188827515
1685921028331852500,11.3358525390625,9.74088191986084,-0.2105683982372284,0.5739783048629761
1685921028341612800,11.34561279296875,9.704989433288574,-0.17228323221206665,0.3394817113876343
1685921028351373000,11.355373046875,9.633204460144043,-0.25363919138908386,0.26979073882102966
1685921028361134000,11.365134033203125,9.731310844421387,-0.4953143000602722,0.6242275834083557
1685921028370895000,11.37489501953125,9.779167175292969,-0.42352959513664246,0.9810572862625122
1685921028380655400,11.3846552734375,9.812666893005371,-0.19381862878799438,0.8491529226303101
1685921028390415600,11.39441552734375,9.676275253295898,-0.15074782073497772,0.5524429082870483
1685921028400176600,11.4041767578125,9.647562026977539,-0.26081767678260803,0.4495515525341034
1685921028409937700,11.413937744140625,9.810274124145508,-0.3158525824546814,0.6936194896697998
1685921028419697700,11.42369775390625,9.745667457580566,-0.2560320198535919,0.7534400224685669
1685921028429458000,11.4334580078125,9.695418357849121,-0.26560330390930176,0.6074778437614441
1685921028439219000,11.443218994140626,9.736096382141113,-0.22492532432079315,0.602692186832428
1685921028448980000,11.45297998046875,9.73370361328125,-0.3086741268634796,0.6912266612052917
1685921028458740200,11.462740234375,9.649954795837402,-0.37088751792907715,0.6433702111244202
1685921028468500500,11.47250048828125,9.707382202148438,-0.32303106784820557,0.6409773826599121
1685921028478261500,11.482261474609375,9.750452995300293,-0.23688943684101105,0.6625127792358398
1685921028488022500,11.4920224609375,9.769596099853516,-0.275174617767334,0.6888338327407837
1685921028497782800,11.50178271484375,9.745667457580566,-0.3613162338733673,0.6266204118728638
1685921028507543000,11.51154296875,9.757631301879883,-0.31345975399017334,0.5428716540336609
1685921028517304000,11.521303955078125,9.72652530670166,-0.18424734473228455,0.6505486369132996
1685921028527065000,11.531065185546876,9.76241683959961,-0.2512463629245758,0.6816553473472595
1685921028536825000,11.5408251953125,9.669096946716309,-0.2991028428077698,0.6290132403373718
1685921028546585300,11.55058544921875,9.783952713012695,-0.27756741642951965,0.5955137610435486
1685921028556346400,11.560346435546874,9.819845199584961,-0.08823533356189728,0.5715855360031128
1685921028566107400,11.570107421875,9.510871887207031,-0.10019944608211517,0.8300103545188904
1685921028575867600,11.57986767578125,9.956235885620117,-0.4091726839542389,0.8108677864074707
1685921028585628000,11.5896279296875,9.721739768981934,-0.4618147611618042,0.49262237548828125
1685921028595389000,11.599388916015625,9.673882484436035,-0.05712864175438881,0.5285146832466125
1685921028605150000,11.60914990234375,9.606884002685547,-0.018843477591872215,0.7390831112861633
1685921028614910200,11.61891015625,9.791131019592285,-0.29431718587875366,0.88025963306427
1685921028624670500,11.62867041015625,9.853344917297363,-0.576670229434967,0.3152543902397156
1685921028634431500,11.638431396484375,9.910772323608398,-0.4259224236011505,0.28175488114356995
1685921028644192300,11.648192138671876,9.477372169494629,-0.31824541091918945,0.4902295470237732
1685921028653952500,11.657952392578125,9.72652530670166,-0.22492532432079315,1.1653046607971191
1685921028663712800,11.667712646484375,10.112068176269531,-0.3565305769443512,1.1054840087890625
1685921028673473800,11.677473876953124,9.673882484436035,-0.2847459018230438,0.38255253434181213
1685921028683234800,11.68723486328125,9.43190860748291,-0.2871387302875519,-0.08195417374372482
1685921028692995000,11.6969951171875,9.767203330993652,-0.3206382393836975,0.3323032557964325
1685921028702755300,11.70675537109375,9.781559944152832,-0.2919243574142456,1.0648061037063599
1685921028712516400,11.716516357421876,9.817452430725098,0.005084747914224863,1.34476637840271
1685921028722277400,11.72627734375,9.764810562133789,-0.1698904037475586,0.7127620577812195
1685921028732037600,11.73603759765625,9.60927677154541,-0.519242525100708,0.03290131315588951
1685921028741798000,11.7457978515625,9.760024070739746,-0.380458801984787,0.19561325013637543
1685921028751559000,11.755558837890625,9.764810562133789,-0.16749759018421173,0.9092726111412048
1685921028761320000,11.76531982421875,9.752845764160156,-0.1746760457754135,1.0648061037063599
1685921028771080000,11.775079833984375,9.769596099853516,-0.33499518036842346,0.5644070506095886
1685921028780840200,11.784840087890625,9.695418357849121,-0.39481574296951294,0.3658027648925781
1685921028790601200,11.794601318359375,9.693025588989258,-0.2560320198535919,0.5428716540336609
1685921028800362200,11.8043623046875,9.752845764160156,-0.2153540402650833,0.7606185078620911
1685921028810122500,11.81412255859375,9.791131019592285,-0.28235307335853577,0.7223333120346069
1685921028819882800,11.8238828125,9.671489715576172,-0.3924229145050049,0.6433702111244202
1685921028829643800,11.833643798828126,9.657133102416992,-0.5742774605751038,0.6936194896697998
1685921028839404800,11.84340478515625,9.939486503601074,-0.2560320198535919,0.6242275834083557
1685921028849165000,11.8531650390625,9.590133666992188,0.007477570790797472,0.42801615595817566
1685921028858925000,11.862925048828124,9.647562026977539,-0.1746760457754135,0.45194438099861145
1685921028868686300,11.872686279296875,9.908379554748535,-0.1698904037475586,0.7055835723876953
1685921028878447400,11.882447265625,9.647562026977539,-0.4426721930503845,0.6720840334892273
1685921028888207400,11.892207275390625,9.822237968444824,-0.3445664644241333,0.638584554195404
1685921028897967600,11.901967529296876,9.704989433288574,-0.1459621787071228,0.5691927075386047
1685921028907728600,11.911728759765625,9.702596664428711,-0.2727817893028259,0.5859424471855164
1685921028917489700,11.92148974609375,9.824630737304688,-0.38285163044929504,0.6601199507713318
1685921028927250000,11.93125,9.76241683959961,-0.4139583110809326,0.6553342938423157
1685921028937010200,11.94101025390625,9.700203895568848,-0.2679961323738098,0.516550600528717
1685921028946771200,11.950771240234374,9.776774406433105,-0.16271193325519562,0.5691927075386047
1685921028956532200,11.9605322265625,9.681061744689941,-0.4570291340351105,0.5667998790740967
1685921028966292500,11.97029248046875,9.836594581604004,-0.2225325107574463,0.6792625188827515
1685921028976052700,11.980052734375,9.642776489257812,-0.18903298676013947,0.602692186832428
1685921028985813800,11.989813720703125,9.72652530670166,-0.2153540402650833,0.605085015296936
1685921028995574800,11.99957470703125,9.786345481872559,-0.2105683982372284,0.6649056077003479
1685921029005335000,12.0093349609375,9.685847282409668,-0.34217363595962524,0.6529414653778076
1685921029015095000,12.019094970703126,9.745667457580566,-0.30149564146995544,0.5931209325790405
1685921029024856000,12.02885595703125,9.73370361328125,-0.23449662327766418,0.6194419860839844
1685921029034617000,12.0386171875,9.688240051269531,-0.2727817893028259,0.6577271223068237
1685921029044377300,12.04837744140625,9.743274688720703,-0.3206382393836975,0.6314060688018799
1685921029054137600,12.0581376953125,9.74806022644043,-0.32303106784820557,0.6553342938423157
1685921029063898600,12.067898681640624,9.714560508728027,-0.2560320198535919,0.6098706722259521
1685921029073659600,12.07765966796875,9.743274688720703,-0.18903298676013947,0.6290132403373718
1685921029083420000,12.087419921875,9.752845764160156,-0.31106695532798767,0.6290132403373718
1685921029093180200,12.09718017578125,9.728918075561523,-0.2799602448940277,0.6505486369132996
1685921029102941200,12.106941162109376,9.704989433288574,-0.2584248483181,0.5620142221450806
1685921029112702200,12.1167021484375,9.71695327758789,-0.27756741642951965,0.6170491576194763
1685921029122462500,12.12646240234375,9.769596099853516,-0.3038884699344635,0.6601199507713318
1685921029132222500,12.136222412109374,9.702596664428711,-0.3038884699344635,0.6074778437614441
1685921029141983700,12.145983642578125,9.724132537841797,-0.30628129839897156,0.5859424471855164
1685921029151744500,12.15574462890625,9.71695327758789,-0.22492532432079315,0.6553342938423157
1685921029161504800,12.1655048828125,9.712167739868164,-0.2871387302875519,0.638584554195404
1685921029171265000,12.17526513671875,9.736096382141113,-0.28235307335853577,0.6242275834083557
1685921029181026000,12.185026123046875,9.728918075561523,-0.3086741268634796,0.6122635006904602
1685921029190787000,12.194787109375,9.712167739868164,-0.2727817893028259,0.6122635006904602
1685921029200547300,12.20454736328125,9.724132537841797,-0.24885354936122894,0.6409773826599121
1685921029210307600,12.2143076171875,9.736096382141113,-0.3038884699344635,0.6433702111244202
1685921029220068600,12.224068603515626,9.728918075561523,-0.23210379481315613,0.6122635006904602
1685921029229829600,12.23382958984375,9.731310844421387,-0.2847459018230438,0.6601199507713318
1685921029239590000,12.24358984375,9.707382202148438,-0.28235307335853577,0.6122635006904602
1685921029249350100,12.25335009765625,9.757631301879883,-0.24885354936122894,0.602692186832428
1685921029259111200,12.263111083984375,9.74088191986084,-0.2560320198535919,0.6266204118728638
1685921029268872000,12.272871826171874,9.805487632751465,-0.30149564146995544,0.6290132403373718
1685921029278632200,12.282632080078125,9.676275253295898,-0.33499518036842346,0.5620142221450806
1685921029288392400,12.292392333984376,9.7097749710083,-0.33738797903060913,0.7414759397506714
1685921029298153500,12.302153564453125,9.738489151000977,-0.28953152894973755,0.7031907439231873
1685921029307914500,12.31191455078125,9.73370361328125,-0.19142581522464752,0.6170491576194763
1685921029317674800,12.3216748046875,9.664311408996582,-0.2799602448940277,0.5309075117111206
1685921029327435000,12.33143505859375,9.683454513549805,-0.27038896083831787,0.5045864582061768
1685921029337196000,12.341196044921874,9.750452995300293,-0.24646073579788208,0.5356931686401367
1685921029346957000,12.35095703125,9.75523853302002,-0.2273181527853012,0.6146563291549683
1685921029356717300,12.36071728515625,9.738489151000977,-0.1986042857170105,0.6433702111244202
1685921029366477600,12.3704775390625,9.774381637573242,-0.21296121180057526,0.5931209325790405
1685921029376238600,12.380238525390626,9.702596664428711,-0.23449662327766418,0.5572285652160645
1685921029385999600,12.38999951171875,9.721739768981934,-0.20817556977272034,0.4902295470237732
1685921029395759900,12.399759765625,9.750452995300293,-0.20099709928035736,0.5333003401756287
1685921029405520000,12.409519775390624,9.74088191986084,-0.24885354936122894,0.6314060688018799
1685921029415281000,12.419281005859375,9.76241683959961,-0.3038884699344635,0.602692186832428
1685921029425042000,12.4290419921875,9.74806022644043,-0.2512463629245758,0.5907281041145325
1685921029434802200,12.43880224609375,9.688240051269531,-0.24167509377002716,0.5739783048629761
1685921029444562400,12.4485625,9.752845764160156,-0.24885354936122894,0.5955137610435486
1685921029454323500,12.458323486328124,9.776774406433105,-0.30628129839897156,0.636191725730896
1685921029464084500,12.46808447265625,9.736096382141113,-0.24646073579788208,0.6433702111244202
1685921029473844700,12.4778447265625,9.75523853302002,-0.17946170270442963,0.6170491576194763
1685921029483605000,12.48760498046875,9.71695327758789,-0.1866401731967926,0.5309075117111206
1685921029493366000,12.497365966796876,9.74088191986084,-0.25363919138908386,0.5763711333274841
1685921029503127000,12.507126953125,9.757631301879883,-0.31106695532798767,0.6433702111244202
1685921029512887300,12.51688720703125,9.757631301879883,-0.20817556977272034,0.5715855360031128
1685921029522647300,12.526647216796874,9.743274688720703,-0.1866401731967926,0.5691927075386047
