time,seconds_elapsed,z,y,x
1685921379879880200,0.181880126953125,0.48099803924560547,0.5006930828094482,0.42723798751831055
1685921379889835800,0.191835693359375,0.5235786437988281,0.463348388671875,0.42103099822998047
1685921379899791600,0.20179150390625,0.5134639739990234,0.43250012397766113,0.3983503580093384
1685921379909747200,0.211747314453125,0.5832719802856445,0.3744257688522339,0.3916514217853546
1685921379919702800,0.221702880859375,0.5547370910644531,0.41605281829833984,0.39403408765792847
1685921379929658400,0.231658447265625,0.5296545028686523,0.4231024980545044,0.4198954701423645
1685921379939614200,0.2416142578125,0.3552675247192383,0.43493378162384033,0.46259239315986633
1685921379949569800,0.25156982421875,0.10190486907958984,0.5202280282974243,0.38070163130760193
1685921379959525400,0.261525390625,-0.47600555419921875,0.5318161249160767,0.3550284504890442
1685921379969481200,0.271481201171875,-0.9535465240478516,0.6500048637390137,0.2532327473163605
1685921379979436800,0.281436767578125,-1.124405860900879,0.7762787342071533,0.19592425227165222
1685921379989390600,0.291390625,-0.7076578140258789,0.8391785621643066,0.2067500352859497
1685921379999346200,0.30134619140625,0.16589641571044922,0.6901638507843018,0.3834174871444702
1685921380009302000,0.311302001953125,1.327052116394043,0.31222009658813477,0.5345967411994934
1685921380019257600,0.321257568359375,2.322551727294922,0.01853656768798828,0.46820947527885437
1685921380029213400,0.33121337890625,3.0740976333618164,-0.27846550941467285,0.37623894214630127
1685921380039169000,0.3411689453125,3.4425458908081055,-0.6293984651565552,0.2884354591369629
1685921380049124600,0.35112451171875,3.116929054260254,-0.8215973377227783,0.08003167808055878
1685921380059080400,0.36108056640625,1.971989631652832,-0.7702745199203491,-0.19438789784908295
1685921380069036000,0.3710361328125,0.5855627059936523,-0.5113835334777832,-0.5209212303161621
1685921380078991600,0.38099169921875,-0.4964103698730469,-0.3453342914581299,-0.7104372382164001
1685921380088947500,0.390947509765625,-1.2841663360595703,-0.1916208267211914,-0.7914300560951233
1685921380098903000,0.400903076171875,-1.8032512664794922,-0.09734296798706055,-0.8053745031356812
1685921380108858600,0.410858642578125,-2.0452303886413574,-0.06467342376708984,-0.8559516072273254
1685921380118814500,0.420814453125,-1.903519630432129,-0.056812167167663574,-0.8179315328598022
1685921380128770000,0.43077001953125,-1.484640121459961,-0.13662934303283691,-0.6231266260147095
1685921380138726000,0.440725830078125,-0.9093961715698242,-0.1802833080291748,-0.3494926393032074
1685921380148681500,0.450681396484375,-0.501622200012207,-0.202276349067688,-0.07315754890441895
1685921380158455000,0.460455078125,-0.26006507873535156,-0.09687995910644531,0.2385231852531433
1685921380168215600,0.470215576171875,-0.17961978912353516,0.0024193525314331055,0.48107674717903137
1685921380177977000,0.47997705078125,-0.20471858978271484,0.11604082584381104,0.6839221715927124
1685921380187737600,0.489737548828125,-0.44042396545410156,0.23917019367218018,0.8795835375785828
1685921380197497300,0.499497314453125,-0.6604852676391602,0.327709436416626,0.9622989296913147
1685921380207257900,0.5092578125,-0.7399692535400391,0.44855010509490967,1.0666426420211792
1685921380217019100,0.51901904296875,-0.8465671539306641,0.4986410140991211,1.1513938903808594
1685921380226779600,0.528779541015625,-0.8234472274780273,0.47892308235168457,1.1483937501907349
1685921380236539400,0.538539306640625,-0.6807746887207031,0.4199092388153076,1.0958088636398315
1685921380246300000,0.5482998046875,-0.3884468078613281,0.28557872772216797,1.0090305805206299
1685921380256061400,0.5580615234375,-0.14841461181640625,0.10921835899353027,0.8692452311515808
1685921380265822000,0.567822021484375,-0.00603485107421875,-0.09342527389526367,0.7117618918418884
1685921380275581700,0.577581787109375,0.17691993713378906,-0.2593216896057129,0.4389243721961975
1685921380285342200,0.58734228515625,0.3413200378417969,-0.4653615951538086,0.2590923607349396
1685921380295103500,0.597103515625,0.44098949432373047,-0.6464519500732422,0.02503921091556549
1685921380304864000,0.606864013671875,0.3741607666015625,-0.7079553604125977,-0.19364847242832184
1685921380314623700,0.616623779296875,0.2875394821166992,-0.7521915435791016,-0.35783135890960693
1685921380324384500,0.626384521484375,-0.0038003921508789062,-0.7341513633728027,-0.41821208596229553
1685921380334145800,0.636145751953125,-0.27285289764404297,-0.6109616756439209,-0.4716637432575226
1685921380343906300,0.64590625,-0.6683340072631836,-0.4712095260620117,-0.43992623686790466
1685921380353666000,0.655666015625,-0.9697389602661133,-0.26930904388427734,-0.385286420583725
1685921380363426600,0.665426513671875,-1.2637271881103516,-0.17485475540161133,-0.36612364649772644
1685921380373187800,0.675187744140625,-1.411839485168457,-0.03727388381958008,-0.3579661548137665
1685921380382948600,0.684948486328125,-1.5037908554077148,0.14310979843139648,-0.29715028405189514
1685921380392708000,0.6947080078125,-1.535963535308838,0.17066740989685059,-0.26384955644607544
1685921380402468900,0.70446875,-1.3351631164550781,0.21094179153442383,-0.23454011976718903
1685921380412230100,0.714230224609375,-1.1029777526855469,0.2288370132446289,-0.20634710788726807
1685921380421990700,0.72399072265625,-0.9126815795898438,0.24299263954162598,-0.08568263053894043
1685921380431750400,0.73375048828125,-0.6716060638427734,0.28668737411499023,-0.04129043594002724
1685921380441511000,0.743510986328125,-0.3946647644042969,0.3200763463973999,0.06148184835910797
1685921380451272400,0.7532724609375,-0.15539836883544922,0.3742116689682007,0.12930983304977417
1685921380461033000,0.763032958984375,0.06830120086669922,0.38884437084198,0.13558003306388855
1685921380470792700,0.772792724609375,0.23449230194091797,0.4225447177886963,0.1996856927871704
1685921380480553200,0.78255322265625,0.42912960052490234,0.5004630088806152,0.22406503558158875
1685921380490314500,0.792314453125,0.4914836883544922,0.45386314392089844,0.20521217584609985
1685921380500075000,0.802074951171875,0.6005277633666992,0.489402174949646,0.23552808165550232
1685921380509834800,0.811834716796875,0.5500907897949219,0.5355759859085083,0.1985207498073578
1685921380519595500,0.821595458984375,0.3208627700805664,0.5834840536117554,0.1704101860523224
1685921380529356800,0.831356689453125,0.05680084228515625,0.6192879676818848,0.14181101322174072
1685921380539117300,0.841117431640625,-0.23697662353515625,0.6314554214477539,0.08191261440515518
1685921380548877000,0.850876953125,-0.4963245391845703,0.6581006050109863,0.007026456296443939
1685921380558637600,0.860637451171875,-0.7240533828735352,0.6870040893554688,-0.07087450474500656
1685921380568398800,0.87039892578125,-0.840205192565918,0.6753714084625244,-0.12578949332237244
1685921380578159600,0.88015966796875,-0.8367795944213867,0.692369818687439,-0.15441638231277466
1685921380587919400,0.88991943359375,-0.8737354278564453,0.723676323890686,-0.15982480347156525
1685921380597679900,0.899679931640625,-0.8583440780639648,0.7122515439987183,-0.16270670294761658
1685921380607441200,0.909441162109375,-0.8362216949462891,0.7061265707015991,-0.22411926090717316
1685921380617201700,0.91920166015625,-0.8357839584350586,0.7546840906143188,-0.17979806661605835
1685921380626963000,0.928962890625,-0.7858257293701172,0.7911548614501953,-0.16618293523788452
1685921380636723700,0.9387236328125,-0.694096565246582,0.7830079793930054,-0.1542883962392807
1685921380646485000,0.948485107421875,-0.5374956130981445,0.8046718835830688,-0.1603207290172577
1685921380656245500,0.95824560546875,-0.3356008529663086,0.8035142421722412,-0.16916391253471375
1685921380666005200,0.968005126953125,-0.2710886001586914,0.8032408952713013,-0.19412274658679962
1685921380675765800,0.977765869140625,-0.1268596649169922,0.8222229480743408,-0.22823047637939453
1685921380685527000,0.987527099609375,-0.07180023193359375,0.8101925849914551,-0.2218458354473114
1685921380695287800,0.997287841796875,0.02303314208984375,0.902008056640625,-0.11914848536252975
1685921380705047600,1.007047607421875,0.13603782653808594,0.9917008876800537,-0.06644067168235779
1685921380714808000,1.01680810546875,0.21972274780273438,1.0718772411346436,0.07251012325286865
1685921380724569300,1.0265693359375,0.36453914642333984,1.1634280681610107,0.18595007061958313
1685921380734329900,1.036329833984375,0.4798603057861328,1.2615267038345337,0.28213781118392944
1685921380744089600,1.046089599609375,0.5421380996704102,1.222603678703308,0.3277072310447693
1685921380753850000,1.05585009765625,0.6347198486328125,1.240769863128662,0.3746873438358307
1685921380763611600,1.065611572265625,0.7288179397583008,1.249422311782837,0.3439294397830963
1685921380773372200,1.0753720703125,0.8196315765380859,1.2418735027313232,0.3585427701473236
1685921380783132000,1.0851318359375,0.8314580917358398,1.2438987493515015,0.32410287857055664
1685921380792892400,1.094892333984375,0.7983484268188477,1.2100181579589844,0.25847503542900085
1685921380802653700,1.10465380859375,0.5691604614257812,1.1612251996994019,0.187883198261261
1685921380812414500,1.11441455078125,0.13865089416503906,1.1641390323638916,0.13871127367019653
1685921380822174200,1.12417431640625,-0.2496967315673828,1.0604989528656006,0.1829773187637329
1685921380831934700,1.133934814453125,-0.39768123626708984,1.1544773578643799,0.02449144423007965
1685921380841696000,1.143696044921875,-0.19896221160888672,1.2747257947921753,-0.04337139427661896
1685921380851456500,1.15345654296875,0.5682697296142578,1.2580772638320923,0.167110413312912
1685921380861216300,1.16321630859375,1.384556770324707,1.0643094778060913,0.40198981761932373
1685921380870976800,1.172976806640625,2.1196727752685547,0.7960402965545654,0.4472710192203522
1685921380880738300,1.18273828125,2.632436752319336,0.5126185417175293,0.25245141983032227
1685921380890498800,1.192498779296875,2.908557891845703,0.35273444652557373,0.1123335137963295
1685921380900258600,1.202258544921875,2.936244010925293,0.1588611602783203,-0.08393780887126923
1685921380910019000,1.21201904296875,2.708311080932617,-0.06039297580718994,-0.23986214399337769
1685921380919780400,1.2217802734375,2.229405403137207,-0.13456034660339355,-0.33056434988975525
1685921380929540900,1.231540771484375,1.7103195190429688,-0.1517249345779419,-0.4364800453186035
1685921380939300900,1.24130078125,1.3529424667358398,-0.15421807765960693,-0.46094760298728943
1685921380949061400,1.251061279296875,1.2056427001953125,-0.19180679321289062,-0.5578075051307678
1685921380958822700,1.26082275390625,1.2334718704223633,-0.40734779834747314,-0.542357325553894
1685921380968583200,1.270583251953125,1.207437515258789,-0.597305178642273,-0.5179256200790405
1685921380978343000,1.280343017578125,0.9242172241210938,-0.7354224920272827,-0.49896347522735596
1685921380988103400,1.290103515625,0.5119438171386719,-0.7919069528579712,-0.5218709111213684
1685921380997865000,1.299864990234375,0.002651214599609375,-0.8650761246681213,-0.4422301948070526
1685921381007625500,1.30962548828125,-0.6123981475830078,-0.8877660632133484,-0.4382862448692322
1685921381017385200,1.31938525390625,-1.3514509201049805,-0.9188639521598816,-0.3411719501018524
1685921381027145700,1.329145751953125,-2.0855321884155273,-0.9213184118270874,-0.29644691944122314
1685921381036907000,1.338906982421875,-2.7533888816833496,-0.8391131162643433,-0.4104492664337158
1685921381046667800,1.348667724609375,-3.4062447547912598,-0.7229340076446533,-0.4774497151374817
1685921381056427500,1.358427490234375,-3.765209674835205,-0.5652182102203369,-0.5188268423080444
1685921381066188000,1.36818798828125,-3.579726219177246,-0.5344417095184326,-0.5199942588806152
1685921381075949300,1.37794921875,-3.1826329231262207,-0.5398404598236084,-0.5523791909217834
1685921381085709800,1.387709716796875,-2.397305965423584,-0.694814920425415,-0.368655800819397
1685921381095469600,1.397469482421875,-1.5585246086120605,-0.8322749137878418,-0.18286198377609253
1685921381105230300,1.407230224609375,-0.6824474334716797,-0.8244924545288086,-0.012678295373916626
1685921381114991600,1.41699169921875,0.19812297821044922,-0.7867867946624756,0.11501727998256683
1685921381124752100,1.426752197265625,1.1861286163330078,-0.7421004772186279,0.22144630551338196
1685921381134511900,1.436511962890625,2.105818748474121,-0.7999577522277832,0.2495902180671692
1685921381144272400,1.4462724609375,2.9013490676879883,-0.940962553024292,0.2045489251613617
1685921381154034000,1.456033935546875,3.39089298248291,-1.1647067070007324,0.10533866286277771
1685921381163794400,1.46579443359375,3.38165283203125,-1.2828564643859863,-0.05242502689361572
1685921381173554200,1.47555419921875,2.8361339569091797,-1.384408712387085,-0.18064740300178528
1685921381183314700,1.485314697265625,1.7954950332641602,-1.3637702465057373,-0.34667032957077026
1685921381193076000,1.495075927734375,0.7237300872802734,-1.2186181545257568,-0.42825061082839966
1685921381202836700,1.504836669921875,-0.15099334716796875,-1.094388723373413,-0.4298926293849945
1685921381212596200,1.51459619140625,-0.9392938613891602,-1.0041768550872803,-0.42217496037483215
1685921381222357000,1.52435693359375,-1.641465663909912,-0.8911468982696533,-0.4031417965888977
1685921381232118300,1.5341181640625,-2.1486825942993164,-0.8649206161499023,-0.4918476343154907
1685921381241878800,1.543878662109375,-2.4552159309387207,-0.8182146549224854,-0.5228531360626221
1685921381251638500,1.553638427734375,-2.5507631301879883,-0.9152204990386963,-0.6258877515792847
1685921381261399000,1.56339892578125,-2.4917149543762207,-0.9905548095703125,-0.6115906238555908
1685921381271160600,1.57316064453125,-2.2530579566955566,-1.0418999195098877,-0.6196746230125427
1685921381280921000,1.582921142578125,-2.00472354888916,-1.093679428100586,-0.6091732978820801
1685921381290680800,1.592680908203125,-1.7108631134033203,-1.0206339359283447,-0.422873854637146
1685921381300441300,1.60244140625,-1.4284839630126953,-1.0317389965057373,-0.377577006816864
1685921381310203000,1.612202880859375,-1.3307161331176758,-0.9829154014587402,-0.22685545682907104
1685921381319963400,1.62196337890625,-1.2757081985473633,-0.9851839542388916,-0.08172036707401276
1685921381329723100,1.63172314453125,-1.229680061340332,-1.0318453311920166,0.17803025245666504
1685921381339483600,1.641483642578125,-1.235154151916504,-0.9309062957763672,0.19490498304367065
1685921381349245000,1.651244873046875,-1.5366358757019043,-0.9100596904754639,0.2449459731578827
1685921381359005400,1.66100537109375,-1.8016815185546875,-0.9564518928527832,0.3226233124732971
1685921381368765200,1.67076513671875,-1.7194523811340332,-0.8483016490936279,0.4202319383621216
1685921381378526000,1.68052587890625,-1.4919800758361816,-1.2620348930358887,0.7803245186805725
1685921381388287200,1.690287353515625,-1.521894931793213,-1.2056076526641846,0.8623902201652527
1685921381398047700,1.7000478515625,-1.5766539573669434,-1.0892066955566406,0.7906097769737244
1685921381407807500,1.709807373046875,-1.6017212867736816,-0.9927291870117188,0.7851364016532898
1685921381417568000,1.719568115234375,-1.9854636192321777,-0.9907903671264648,0.9579622745513916
1685921381427329500,1.72932958984375,-2.3744959831237793,-0.9506707191467285,0.8857332468032837
1685921381437090000,1.739090087890625,-2.5396056175231934,-0.7692022323608398,0.832925021648407
1685921381446849800,1.748849853515625,-2.5478339195251465,-1.5274507999420166,1.4128577709197998
1685921381456610300,1.7586103515625,-2.0963196754455566,-1.1320276260375977,1.4124391078948975
1685921381466371600,1.76837158203125,-1.6256117820739746,-0.9130301475524902,0.93336021900177
1685921381476132400,1.77813232421875,-1.4036965370178223,-0.6373052597045898,0.6546158790588379
1685921381485892000,1.78789208984375,-1.004715919494629,-0.43143725395202637,0.4273538589477539
1685921381495652600,1.797652587890625,-0.47942638397216797,-0.5575399398803711,0.1581028699874878
1685921381505414000,1.807413818359375,0.08597660064697266,-0.6806154251098633,0.09710034728050232
1685921381515174400,1.81717431640625,0.28225231170654297,-0.7510490417480469,0.12724453210830688
1685921381524934100,1.82693408203125,0.6071538925170898,-0.8199448585510254,0.3811785578727722
1685921381534695000,1.83669482421875,0.8079700469970703,-0.8663578033447266,0.6861263513565063
1685921381544456200,1.846456298828125,0.8384189605712891,-0.8282703161239624,0.8168104290962219
1685921381554216700,1.856216796875,0.8783168792724609,-0.6701700687408447,0.7851532697677612
1685921381563976400,1.8659765625,0.9368495941162109,-0.48411810398101807,0.6459299325942993
1685921381573737000,1.875737060546875,1.146728515625,-0.22718381881713867,0.6057568788528442
1685921381583498500,1.88549853515625,2.2568492889404297,0.36784815788269043,0.22887355089187622
1685921381593259000,1.895259033203125,3.5105199813842773,0.9924044609069824,-0.09154075384140015
1685921381603018800,1.905018798828125,5.025206565856934,1.5783910751342773,-0.2976684272289276
1685921381612779300,1.914779296875,6.3509016036987305,1.8523404598236084,-0.3579944372177124
1685921381622540500,1.92454052734375,7.170279502868652,1.5743772983551025,-0.027969708666205406
1685921381632301300,1.93430126953125,7.3617963790893555,1.4472559690475464,-0.019154071807861328
1685921381642061000,1.94406103515625,6.632518768310547,1.3203566074371338,-0.5403405427932739
1685921381651821600,1.953821533203125,5.284344673156738,1.1089551448822021,-0.9511614441871643
1685921381661582800,1.963582763671875,3.6778202056884766,0.81601482629776,-1.4064860343933105
1685921381671343400,1.97334326171875,2.057659149169922,0.6150099635124207,-1.9147112369537354
1685921381681103000,1.98310302734375,0.8101043701171875,0.5116026997566223,-2.4983012676239014
1685921381690863900,1.99286376953125,-0.012180328369140625,0.4269410967826843,-2.9465601444244385
1685921381700625200,2.002625244140625,-0.352691650390625,0.3811948299407959,-3.1579654216766357
1685921381710385700,2.0123857421875,0.13505840301513672,-0.05203819274902344,-3.231966972351074
1685921381720145400,2.0221455078125,0.4005107879638672,0.44238144159317017,-2.103043794631958
1685921381729906000,2.031906005859375,1.3732719421386719,0.36463576555252075,-1.4031132459640503
1685921381739667500,2.04166748046875,1.475956916809082,0.8228070735931396,-0.6900591850280762
1685921381749428000,2.051427978515625,1.5787458419799805,1.006917119026184,0.10189861059188843
1685921381759187700,2.061187744140625,1.453526496887207,1.132163643836975,0.6680104732513428
1685921381768948200,2.0709482421875,1.2378730773925781,1.3470410108566284,0.8208499550819397
1685921381778709500,2.08070947265625,0.9966220855712891,1.3511176109313965,0.9961467981338501
1685921381788470300,2.09047021484375,0.9796638488769531,1.263960838317871,1.1592705249786377
1685921381798230000,2.10022998046875,0.8374109268188477,1.130439281463623,1.362908124923706
1685921381807990500,2.109990478515625,0.4554729461669922,0.8012048602104187,1.6855849027633667
1685921381817751800,2.119751708984375,0.31817054748535156,0.8918382525444031,1.2226598262786865
1685921381827512300,2.12951220703125,-0.1715221405029297,0.37579554319381714,1.2438693046569824
1685921381837272000,2.13927197265625,-0.5448703765869141,0.17276954650878906,0.8375236988067627
1685921381847032600,2.149032470703125,-1.009561538696289,-0.24882227182388306,0.24365639686584473
1685921381856794000,2.158794189453125,-1.4127206802368164,-0.5178875923156738,-0.3370884954929352
1685921381866554600,2.1685546875,-1.7857866287231445,-0.6500709652900696,-0.801681399345398
1685921381876314400,2.178314453125,-2.0695528984069824,-0.7247927188873291,-1.105027675628662
1685921381886075000,2.188074951171875,-2.1382617950439453,-0.7502611875534058,-1.2079970836639404
1685921381895836400,2.19783642578125,-2.0407495498657227,-0.6180357336997986,-1.2317681312561035
1685921381905597000,2.207596923828125,-1.8803701400756836,-0.6380833983421326,-1.0975534915924072
1685921381915356700,2.217356689453125,-1.623946189880371,-0.5959070324897766,-0.7641230821609497
1685921381925117200,2.2271171875,-1.1713714599609375,-0.41806644201278687,-0.4030727744102478
1685921381934878500,2.23687841796875,-1.1352548599243164,-0.46053773164749146,-0.23265528678894043
1685921381944639200,2.24663916015625,-0.8556480407714844,-1.0554414987564087,-0.23432642221450806
1685921381954399000,2.25639892578125,-0.9984979629516602,-0.7542146444320679,-0.27775126695632935
1685921381964159500,2.266159423828125,-1.1687116622924805,-0.5419971346855164,-0.019269078969955444
1685921381973920800,2.275920654296875,-1.123199462890625,-0.6008804440498352,-0.45610007643699646
1685921381983681300,2.285681396484375,-0.8323631286621094,-0.3347734808921814,-1.0408687591552734
1685921381993441000,2.29544091796875,-0.6863107681274414,-0.11149394512176514,-1.4350943565368652
1685921382003201800,2.305201904296875,-0.6775846481323242,-0.04466748237609863,-1.7099475860595703
1685921382012963000,2.314963134765625,-0.967529296875,-0.5718650221824646,-1.6505885124206543
1685921382022723600,2.3247236328125,-0.09980297088623047,0.9158967733383179,-1.6660699844360352
1685921382032483300,2.3344833984375,0.23085594177246094,1.1208975315093994,-0.9614657163619995
1685921382042243800,2.344243896484375,0.11513233184814453,0.6683050394058228,-0.38417088985443115
1685921382052005400,2.35400537109375,0.5130395889282227,0.5006036758422852,-0.07892948389053345
1685921382061766000,2.363765869140625,0.7371177673339844,0.25961124897003174,0.1244802474975586
1685921382071525600,2.373525634765625,0.7612457275390625,0.18833494186401367,0.19049179553985596
1685921382081286100,2.3832861328125,1.2582159042358398,-0.15619534254074097,0.0584712028503418
1685921382091047400,2.39304736328125,1.2267160415649414,-0.2960473895072937,0.11084109544754028
1685921382100808200,2.40280810546875,0.8546562194824219,-0.3219227194786072,0.2583712339401245
1685921382110568000,2.41256787109375,0.8287134170532227,-0.03930532932281494,-0.10135066509246826
1685921382120328400,2.422328369140625,0.0780801773071289,0.4737633466720581,-0.21848973631858826
1685921382130089700,2.43208984375,-0.2701091766357422,1.178237795829773,-0.20018786191940308
1685921382139850200,2.441850341796875,-0.35980796813964844,1.8968766927719116,-0.05091008543968201
1685921382149610000,2.45160986328125,-0.02254009246826172,2.732698917388916,0.1897154152393341
1685921382159370800,2.461370849609375,0.2394275665283203,3.718472957611084,0.7453726530075073
1685921382169132000,2.471132080078125,0.8726043701171875,4.405664920806885,1.5626325607299805
1685921382178892500,2.480892578125,1.4605770111083984,4.477714538574219,2.423597812652588
1685921382188652300,2.49065234375,2.0101375579833984,4.288264751434326,2.6878037452697754
1685921382198412800,2.500412841796875,2.77325439453125,3.8601274490356445,2.4293994903564453
1685921382208174300,2.51017431640625,3.406277656555176,2.97538423538208,1.7987875938415527
1685921382217934800,2.519934814453125,3.6874828338623047,1.741492509841919,1.0108890533447266
1685921382227694600,2.529694580078125,3.613260269165039,0.5798354148864746,0.22737395763397217
1685921382237455000,2.539455078125,3.1345558166503906,-0.3732997179031372,-0.5410202145576477
1685921382247216400,2.54921630859375,2.636469841003418,-1.038374662399292,-1.0341320037841797
1685921382256977200,2.55897705078125,1.8954620361328125,-1.8427561521530151,-1.38532292842865
1685921382266737000,2.56873681640625,1.1416635513305664,-2.3926737308502197,-1.7161757946014404
1685921382276497400,2.578497314453125,0.47916221618652344,-2.8370203971862793,-2.039760112762451
1685921382286258700,2.5882587890625,-0.09430122375488281,-3.0747385025024414,-2.2504923343658447
1685921382296019200,2.598019287109375,-0.6055068969726562,-3.139533519744873,-2.3101682662963867
1685921382305779200,2.607779296875,-0.9573612213134766,-3.1738433837890625,-2.264432191848755
1685921382315539700,2.617539794921875,-1.2368230819702148,-3.185220241546631,-1.955675482749939
1685921382325301000,2.627301025390625,-1.5924663543701172,-3.1753578186035156,-1.6632827520370483
1685921382335061500,2.6370615234375,-2.0554161071777344,-3.191929340362549,-1.4504737854003906
1685921382344821200,2.6468212890625,-2.575587272644043,-3.180860996246338,-1.2874325513839722
1685921382354582000,2.65658203125,-3.1986355781555176,-3.074913263320923,-0.7893824577331543
1685921382364343300,2.66634326171875,-3.4240031242370605,-2.86690354347229,-0.5220721960067749
1685921382374103800,2.676103759765625,-3.4491958618164062,-2.441235065460205,-0.8524091243743896
1685921382383863600,2.685863525390625,-3.387104034423828,-2.1018903255462646,-0.954189658164978
1685921382393624000,2.6956240234375,-3.2001490592956543,-2.005350351333618,-0.6518365144729614
1685921382403385600,2.705385498046875,-2.8055243492126465,-1.8412132263183594,-0.23695725202560425
1685921382413146000,2.71514599609375,-2.1609649658203125,-1.5125714540481567,0.18194279074668884
1685921382422905900,2.72490576171875,-1.3982419967651367,-1.2798137664794922,0.5361611247062683
1685921382432666400,2.734666259765625,-0.5481767654418945,-1.0764702558517456,0.7862330675125122
1685921382442427600,2.744427734375,0.15093994140625,-0.7934700846672058,0.7897900938987732
1685921382452188400,2.7541884765625,0.9241743087768555,-0.6552307605743408,0.6224830150604248
1685921382461948200,2.7639482421875,1.7117385864257812,-0.48610568046569824,0.453309565782547
1685921382471708700,2.773708740234375,2.394345283508301,-0.5074635148048401,0.29131701588630676
1685921382481470000,2.783469970703125,2.8935232162475586,-0.5945906043052673,0.14504975080490112
1685921382491230500,2.79323046875,2.9496021270751953,-0.7784843444824219,0.016301840543746948
1685921382500990500,2.802990478515625,2.606718063354492,-0.922636091709137,-0.125320166349411
1685921382510751000,2.8127509765625,1.8303499221801758,-0.9385407567024231,-0.34859269857406616
1685921382520512300,2.82251220703125,0.9945354461669922,-0.8016239404678345,-0.52029949426651
1685921382530272800,2.832272705078125,0.1573476791381836,-0.6273988485336304,-0.6132785081863403
1685921382540032500,2.842032470703125,-0.5041637420654297,-0.4133211374282837,-0.6044200658798218
1685921382549793300,2.851793212890625,-1.1527271270751953,-0.3040376901626587,-0.5234817266464233
1685921382559554600,2.861554443359375,-1.6621685028076172,-0.16971349716186523,-0.4802854061126709
1685921382569315000,2.871315185546875,-1.89741849899292,-0.09584605693817139,-0.5029289722442627
1685921382579074800,2.88107470703125,-1.8884339332580566,0.20615893602371216,-0.3599728047847748
1685921382588835300,2.89083544921875,-1.6934690475463867,0.9981439709663391,-0.05493505299091339
1685921382598596900,2.900596923828125,-1.4324417114257812,1.8920629024505615,0.5214989185333252
1685921382608357400,2.910357421875,-0.7237176895141602,2.73905873298645,1.2895184755325317
1685921382618117000,2.9201171875,-0.0479278564453125,3.411623001098633,2.264711856842041
1685921382627877600,2.929877685546875,0.3258638381958008,3.526634693145752,2.8104679584503174
1685921382637639000,2.939638916015625,0.3580293655395508,3.2423348426818848,2.5672104358673096
1685921382647399700,2.949399658203125,0.4665708541870117,2.6155247688293457,1.8362274169921875
1685921382657159400,2.959159423828125,0.22558021545410156,1.8229268789291382,0.8783770203590393
1685921382666920000,2.968919921875,0.07764530181884766,1.1354074478149414,0.10450330376625061
1685921382676681200,2.97868115234375,0.3166208267211914,0.6497018337249756,-0.36382612586021423
1685921382686441700,2.988441650390625,0.40455055236816406,0.4268304109573364,-0.43479833006858826
1685921382696201700,2.99820166015625,0.5231800079345703,0.4409637451171875,-0.506144642829895
1685921382705962200,3.007962158203125,0.5030155181884766,0.6374642848968506,-0.4881470799446106
1685921382715723500,3.0177236328125,0.22781658172607422,0.7418638467788696,-0.3805677890777588
1685921382725484000,3.027484130859375,-0.12472820281982422,0.6825716495513916,-0.504389762878418
1685921382735243800,3.037243896484375,-0.5995826721191406,0.5064424276351929,-0.6745880246162415
1685921382745004500,3.047004638671875,-1.0365514755249023,0.30252712965011597,-0.7941126227378845
1685921382754765800,3.056765869140625,-0.7727041244506836,0.2471734881401062,-1.160402536392212
1685921382764526300,3.0665263671875,0.034287452697753906,0.08701443672180176,-1.1984059810638428
1685921382774286000,3.0762861328125,-0.22116470336914062,-0.021168887615203857,-1.368938684463501
1685921382784046600,3.086046630859375,-0.3931589126586914,-0.0692901611328125,-1.4571568965911865
1685921382793808100,3.09580810546875,-0.2506065368652344,-0.10540539026260376,-1.437621831893921
1685921382803568600,3.105568603515625,0.2392597198486328,-0.1603361964225769,-1.3957207202911377
1685921382813328400,3.115328369140625,0.48625755310058594,-0.33825433254241943,-1.2165571451187134
1685921382823089000,3.1250888671875,0.6014652252197266,-0.617762565612793,-1.139754295349121
1685921382832850200,3.13485009765625,0.5476455688476562,-0.47788357734680176,-0.9811855554580688
1685921382842611000,3.14461083984375,0.42778682708740234,-0.1749941110610962,-0.578149676322937
1685921382852370700,3.15437060546875,0.15099716186523438,0.23336821794509888,-0.023075759410858154
1685921382862131200,3.164131103515625,-0.2946739196777344,0.5245873928070068,0.5160553455352783
1685921382871892500,3.173892578125,-0.7832937240600586,0.6645340919494629,0.5531100034713745
1685921382881653000,3.183653076171875,-0.768864631652832,0.6936929225921631,0.25225621461868286
1685921382891412700,3.193412841796875,-0.00891876220703125,0.3415793180465698,-0.10602664947509766
1685921382901173500,3.203173583984375,0.8744707107543945,-0.11700433492660522,-0.5515950918197632
1685921382910934800,3.212934814453125,1.7121601104736328,-0.3739261031150818,-0.9501636028289795
1685921382920695300,3.2226953125,2.6244239807128906,-0.39362478256225586,-0.996898889541626
1685921382930455000,3.232455078125,3.5233335494995117,-0.39151448011398315,-0.9305250644683838
1685921382940215600,3.242215576171875,4.2941083908081055,-0.7011808156967163,-1.1557903289794922
1685921382949977000,3.25197705078125,4.795373916625977,-1.122862696647644,-1.3723156452178955
1685921382959737600,3.261737548828125,4.752471923828125,-1.7179843187332153,-1.6649612188339233
1685921382969497300,3.271497314453125,3.901212692260742,-2.038135051727295,-1.5580168962478638
1685921382979257900,3.2812578125,2.7069406509399414,-1.7828418016433716,-0.7412165999412537
1685921382989019400,3.291019287109375,1.002197265625,-1.0251433849334717,0.25504472851753235
1685921382998780000,3.30077978515625,-8.868678092956543,0.5599408745765686,4.370266437530518
1685921383008539600,3.31053955078125,-5.7230000495910645,1.2542881965637207,1.675437331199646
1685921383018300200,3.320300048828125,-5.117539405822754,-2.4439194202423096,1.3472079038619995
1685921383028061400,3.3300615234375,-3.449113368988037,-2.99541974067688,-0.12588341534137726
1685921383037822000,3.339822021484375,-3.40866756439209,-2.402364492416382,-0.6416400671005249
1685921383047582000,3.34958203125,-2.5276436805725098,-2.7143394947052,-0.03334009647369385
1685921383057342500,3.359342529296875,-1.7630910873413086,-2.189190626144409,-0.0609855055809021
1685921383067103700,3.369103759765625,-0.8714618682861328,-0.8940870761871338,-0.6570137143135071
1685921383076864300,3.3788642578125,0.059375762939453125,-0.2346312403678894,-0.518840491771698
1685921383086624000,3.3886240234375,0.6410865783691406,-0.07380467653274536,-0.46794795989990234
1685921383096384800,3.398384765625,1.4575538635253906,-0.0947960764169693,-0.8103688955307007
1685921383106146000,3.40814599609375,1.530167579650879,0.06172482669353485,-0.8835583329200745
1685921383115906600,3.417906494140625,2.3902816772460938,0.576810359954834,-0.40252068638801575
1685921383125666300,3.427666259765625,2.4801626205444336,0.814875066280365,-0.48719552159309387
1685921383135426800,3.4374267578125,2.581597328186035,1.0379101037979126,-0.6045066118240356
1685921383145188400,3.447188232421875,2.550935745239258,1.4235984086990356,-0.8893530368804932
1685921383154948900,3.456948974609375,2.298102378845215,1.7429865598678589,-1.521981120109558
1685921383164708600,3.46670849609375,2.0700559616088867,1.8080453872680664,-1.779242753982544
1685921383174469000,3.47646923828125,1.5026741027832031,1.6019659042358398,-1.8114213943481445
1685921383184230400,3.48623046875,0.9076318740844727,1.44856595993042,-1.882790446281433
1685921383193991200,3.4959912109375,0.4019956588745117,1.0162602663040161,-1.9049559831619263
1685921383203751000,3.5057509765625,-0.18227672576904297,0.5689736604690552,-1.7768118381500244
1685921383213511400,3.515511474609375,-0.6713275909423828,0.3141111135482788,-1.6530002355575562
1685921383223272700,3.525272705078125,-1.3000106811523438,0.25411486625671387,-1.4084669351577759
1685921383233033200,3.535033203125,-1.6433382034301758,0.1890183687210083,-1.4358484745025635
1685921383242793200,3.544793212890625,-1.8122005462646484,0.1617577075958252,-1.3537638187408447
1685921383252553700,3.5545537109375,-1.6282854080200195,-0.10338491201400757,-1.3684402704238892
1685921383262315000,3.56431494140625,-1.2858467102050781,-0.253176212310791,-1.0954681634902954
1685921383272075500,3.574075439453125,-1.0098905563354492,-0.17177534103393555,-0.9043367505073547
1685921383281835300,3.583835205078125,-0.959965705871582,-0.09946662187576294,-0.737443208694458
1685921383291596000,3.593595947265625,-0.6981315612792969,-0.05296528339385986,-0.542457640171051
1685921383301357300,3.603357421875,-0.43497467041015625,-0.019039452075958252,-0.43164101243019104
1685921383311117800,3.613117919921875,-0.09920883178710938,-0.25263434648513794,-0.4728311598300934
1685921383320877600,3.622877685546875,-0.1496114730834961,-0.23484325408935547,-0.3694465756416321
1685921383330638000,3.63263818359375,-0.45848655700683594,-0.17469549179077148,-0.4511597156524658
1685921383340399600,3.642399658203125,-0.5345468521118164,-0.29392945766448975,-0.44471150636672974
1685921383350160100,3.65216015625,-0.7219133377075195,-0.2689201831817627,-0.4290056824684143
1685921383359919900,3.661919921875,-0.7221841812133789,-0.23797696828842163,-0.2937060594558716
1685921383369680400,3.671680419921875,-0.7174100875854492,-0.2693710923194885,-0.27351313829421997
1685921383379442000,3.68144189453125,-0.652735710144043,-0.19784754514694214,-0.20353850722312927
1685921383389202400,3.691202392578125,-0.6023921966552734,-0.1446438431739807,-0.04416990280151367
1685921383398962200,3.700962158203125,-0.5950069427490234,-0.14253658056259155,0.06946367025375366
1685921383408722700,3.71072265625,-0.7547416687011719,-0.11900860071182251,0.13297486305236816
1685921383418484000,3.72048388671875,-0.6945667266845703,-0.07507145404815674,0.24023288488388062
1685921383428244700,3.73024462890625,-0.7256088256835938,-0.06731057167053223,0.37996411323547363
1685921383438004500,3.74000439453125,-0.7044458389282227,-0.13857144117355347,0.48403316736221313
1685921383447765000,3.749764892578125,-0.7649917602539062,-0.09112507104873657,0.5048218369483948
1685921383457526300,3.7595263671875,-0.7325839996337891,-0.008062958717346191,0.5983112454414368
1685921383467286800,3.769286865234375,-0.6884126663208008,-0.041542768478393555,0.5748119354248047
1685921383477046800,3.779046875,-0.5655107498168945,-0.0066394805908203125,0.5880478024482727
1685921383486807300,3.788807373046875,-0.3331260681152344,-0.037351250648498535,0.5940983891487122
1685921383496568600,3.798568603515625,-0.18279647827148438,-0.05169302225112915,0.5360752940177917
1685921383506329000,3.8083291015625,-0.14767074584960938,-0.09113520383834839,0.5842992067337036
1685921383516088800,3.8180888671875,-0.055518150329589844,-0.04549592733383179,0.5758915543556213
1685921383525849600,3.827849609375,0.04802894592285156,0.019545555114746094,0.46796685457229614
1685921383535611000,3.83761083984375,0.23935222625732422,0.06202507019042969,0.3477140963077545
1685921383545371400,3.847371337890625,0.49459171295166016,0.07659280300140381,0.3531443774700165
1685921383555131100,3.857131103515625,0.8374557495117188,0.004338622093200684,0.28206005692481995
1685921383564891600,3.8668916015625,0.7779664993286133,-0.33673518896102905,0.08619830012321472
1685921383574653200,3.876653076171875,1.1481685638427734,-0.6660873889923096,-0.27551186084747314
1685921383584413700,3.88641357421875,1.5650444030761719,-0.3658263683319092,-0.42746788263320923
1685921383594173400,3.89617333984375,2.205293655395508,0.28751832246780396,-0.43213117122650146
1685921383603934000,3.905933837890625,2.865178108215332,1.0563098192214966,-0.40278351306915283
1685921383613695200,3.9156953125,3.578049659729004,1.6421246528625488,-0.23662057518959045
1685921383623456000,3.9254560546875,4.360508918762207,2.045097827911377,-0.016076713800430298
1685921383633215700,3.9352158203125,4.2646074295043945,1.667280673980713,-0.465229332447052
1685921383642976300,3.944976318359375,3.038741111755371,1.502963900566101,-0.23114077746868134
1685921383652737500,3.954737548828125,2.8025360107421875,0.37639135122299194,-0.8104244470596313
1685921383662498000,3.964498046875,2.0841779708862305,-0.9555586576461792,-1.4316356182098389
1685921383672257800,3.9742578125,1.0794973373413086,-1.3682034015655518,-1.349469542503357
1685921383682018600,3.9840185546875,-0.1834707260131836,-1.143613338470459,-0.8677203059196472
1685921383691779800,3.99377978515625,-0.5157546997070312,-0.7078010439872742,-0.4829704165458679
1685921383701540400,4.003540283203125,-0.8226470947265625,-0.4180530309677124,-0.41872385144233704
1685921383711300000,4.013300048828125,-1.0176420211791992,-0.3882063031196594,-0.44193053245544434
1685921383721060900,4.023060791015625,-1.0929527282714844,-0.6623739004135132,-0.6874018311500549
1685921383730822100,4.032822265625,-1.5207128524780273,-1.164914608001709,-0.7999803423881531
1685921383740582700,4.042582763671875,-2.137096405029297,-1.643326997756958,-0.8566272258758545
1685921383750342400,4.05234228515625,-2.898749351501465,-2.1126108169555664,-1.0971550941467285
1685921383760103000,4.06210302734375,-3.676934242248535,-2.5129551887512207,-1.0751004219055176
1685921383769864400,4.071864501953125,-4.386642932891846,-2.555131196975708,-0.9162468910217285
1685921383779625000,4.081625,-4.355718612670898,-2.520108461380005,-0.5973308682441711
1685921383789384700,4.091384765625,-3.868666172027588,-2.4963090419769287,-0.6347538232803345
1685921383799145200,4.101145263671875,-2.9457454681396484,-2.2459092140197754,-0.48970723152160645
1685921383808906500,4.110906494140625,-0.8761749267578125,-1.3967970609664917,-0.9846526384353638
1685921383818667300,4.120667236328125,0.11018085479736328,-1.2910760641098022,-0.37103724479675293
1685921383828427000,4.130427001953125,0.7556600570678711,-1.8756191730499268,-0.311559796333313
1685921383838187500,4.1401875,1.035313606262207,-1.7299327850341797,-0.5616253614425659
1685921383847948800,4.14994873046875,2.538264274597168,0.007575958967208862,-0.3915512263774872
1685921383857709600,4.15970947265625,1.9376506805419922,0.4404086172580719,-0.6415257453918457
1685921383867469300,4.16946923828125,0.8289003372192383,-0.4110651910305023,0.1827104538679123
1685921383877229800,4.179229736328125,0.22267913818359375,-0.6264711618423462,1.1165238618850708
1685921383886991000,4.1889912109375,0.3841094970703125,-0.7252888083457947,1.3351951837539673
1685921383896751600,4.198751708984375,0.33029842376708984,-0.08295148611068726,1.0240904092788696
1685921383906511400,4.208511474609375,0.5129642486572266,0.9577770233154297,1.0025030374526978
1685921383916272000,4.218272216796875,-0.6939277648925781,1.0202968120574951,0.7383589744567871
1685921383926033400,4.228033447265625,-1.193345069885254,1.0074419975280762,0.9183589220046997
1685921383935794000,4.2377939453125,-0.7549667358398438,1.1846253871917725,0.6841946244239807
1685921383945553700,4.2475537109375,-0.8780498504638672,1.3677855730056763,0.9596050977706909
1685921383955314400,4.257314453125,-0.7476139068603516,1.2758758068084717,0.7987905740737915
1685921383965075700,4.26707568359375,-0.7951068878173828,0.9974192380905151,0.7278869152069092
1685921383974836200,4.276836181640625,-1.0373544692993164,0.7130608558654785,0.4996943771839142
1685921383984596000,4.286595947265625,-1.2444953918457031,0.311389684677124,0.08382084965705872
1685921383994356500,4.2963564453125,-1.3756513595581055,0.009254217147827148,-0.034161537885665894
1685921384004118000,4.306117919921875,-1.4334335327148438,0.35772526264190674,0.10208100080490112
1685921384013878500,4.31587841796875,-1.3395328521728516,0.7051513195037842,0.21236556768417358
1685921384023638300,4.32563818359375,-1.1970844268798828,0.5671279430389404,0.22181886434555054
1685921384033398800,4.335398681640625,-1.2476472854614258,0.26664865016937256,0.0675196647644043
1685921384043160300,4.345160400390625,-0.6835098266601562,0.1854841709136963,-0.310527503490448
1685921384052920800,4.3549208984375,-0.39612865447998047,0.39397215843200684,-0.40075212717056274
1685921384062680600,4.3646806640625,-0.3365488052368164,0.7866946458816528,-0.2707650363445282
1685921384072441000,4.374441162109375,-0.09562492370605469,1.0462044477462769,-0.00021055340766906738
1685921384082202400,4.384202392578125,0.04456615447998047,1.5794904232025146,0.3222142159938812
1685921384091963100,4.393963134765625,-0.08021831512451172,3.0524168014526367,1.1354833841323853
1685921384101723000,4.403722900390625,-0.23276996612548828,3.135913372039795,0.5479328632354736
1685921384111483400,4.4134833984375,-0.593022346496582,2.4969377517700195,0.14971470832824707
1685921384121244700,4.42324462890625,-0.10303974151611328,1.3657004833221436,-0.2426954209804535
1685921384131005200,4.433005126953125,0.6908273696899414,0.32838964462280273,-0.5042521357536316
1685921384140765000,4.442764892578125,1.2893123626708984,-0.001851201057434082,-0.4236395061016083
1685921384150525700,4.452525634765625,1.7820396423339844,-0.02769458293914795,-0.2618768811225891
1685921384160287000,4.462286865234375,1.876124382019043,0.3882838487625122,-0.09078246355056763
1685921384170047500,4.472047607421875,2.0409374237060547,1.0634287595748901,-0.11139638721942902
1685921384179807200,4.48180712890625,1.6983280181884766,2.025878667831421,0.019496142864227295
1685921384189567700,4.491567626953125,1.482095718383789,2.348599910736084,0.6503928899765015
1685921384199329300,4.501329345703125,2.0317487716674805,2.8005523681640625,0.08668220043182373
1685921384209089800,4.51108984375,2.1942672729492188,3.1004981994628906,-0.23974457383155823
1685921384218849500,4.520849609375,1.9111289978027344,2.8565127849578857,-0.4515864849090576
1685921384228610000,4.530610107421875,1.2238750457763672,1.534794807434082,-0.6014000773429871
1685921384238371600,4.54037158203125,0.4397001266479492,0.5681936740875244,-0.6132382154464722
1685921384248132000,4.550132080078125,0.4284229278564453,-0.2221975326538086,-0.6954090595245361
1685921384257891800,4.559891845703125,1.1064472198486328,-0.9747502207756042,-0.569909930229187
1685921384267652400,4.56965234375,1.935689926147461,-1.6071875095367432,-0.5372783541679382
1685921384277413600,4.57941357421875,2.305872917175293,-2.030925750732422,-0.48409003019332886
1685921384287174400,4.58917431640625,2.6113929748535156,-1.4477275609970093,-0.26048851013183594
1685921384296934100,4.59893408203125,2.803743362426758,-0.6923311948776245,-0.7912715673446655
1685921384306694700,4.608694580078125,2.054903984069824,0.46152520179748535,-1.3884236812591553
1685921384316456000,4.6184560546875,1.0423812866210938,0.3965764045715332,-1.6929019689559937
1685921384326216400,4.628216552734375,0.37921810150146484,-0.2214258909225464,-1.8184726238250732
1685921384335976400,4.6379765625,-0.33304405212402344,-0.726330578327179,-1.5806185007095337
1685921384345737000,4.647737060546875,-1.0549602508544922,-1.5555683374404907,-1.280595064163208
1685921384355498200,4.657498291015625,-1.5237455368041992,-2.3106160163879395,-0.5890073776245117
1685921384365258800,4.6672587890625,-1.7412400245666504,-2.2922475337982178,-1.102845549583435
1685921384375018500,4.6770185546875,-2.4697484970092773,-3.941344976425171,-1.1685954332351685
1685921384384779300,4.686779296875,-2.540626049041748,-3.175476551055908,-0.6676233410835266
1685921384394540500,4.69654052734375,-2.064883232116699,-2.0493199825286865,-0.6513960361480713
1685921384404301000,4.706301025390625,-0.8772859573364258,-1.6641799211502075,-0.6569094061851501
1685921384414060800,4.716060791015625,-0.3298654556274414,-1.5009541511535645,-0.40402916073799133
1685921384423821600,4.725821533203125,-0.2506427764892578,-1.696266531944275,-0.48855629563331604
1685921384433582800,4.735582763671875,-0.4012584686279297,-2.0606398582458496,0.1691378951072693
1685921384443343400,4.74534326171875,0.004551887512207031,-1.5270146131515503,0.04030922055244446
1685921384453103000,4.75510302734375,0.7505283355712891,-0.4797089099884033,-0.061783552169799805
1685921384462863600,4.764863525390625,1.2344932556152344,-0.08083558082580566,-0.08725482225418091
1685921384472625200,4.774625244140625,1.0885772705078125,0.3444167375564575,-0.03618788719177246
1685921384482385700,4.7843857421875,0.8177852630615234,0.6446071863174438,-0.021712005138397217
1685921384492145400,4.7941455078125,0.48577880859375,0.8207428455352783,-0.11399227380752563
1685921384501906000,4.803906005859375,0.3340482711791992,1.1821706295013428,-0.19273877143859863
1685921384511667200,4.813667236328125,-0.042311668395996094,1.4366527795791626,-0.13676238059997559
1685921384521428000,4.823427978515625,-0.34311389923095703,1.644193410873413,-0.12757200002670288
1685921384531187700,4.833187744140625,-0.6000766754150391,1.6980136632919312,-0.10708475112915039
1685921384540948200,4.8429482421875,-1.025874137878418,1.4055222272872925,-0.07207095623016357
1685921384550709500,4.85270947265625,-1.36029052734375,0.9482970237731934,0.043267011642456055
1685921384560470300,4.86247021484375,-2.055556297302246,0.5710107088088989,0.279842346906662
1685921384570230000,4.87222998046875,-1.93143892288208,0.15818607807159424,0.26833534240722656
1685921384579990500,4.881990478515625,-1.8019566535949707,-0.14531707763671875,0.36507168412208557
1685921384589751800,4.891751708984375,-1.8481554985046387,-0.36326515674591064,0.5878728032112122
1685921384599512300,4.90151220703125,-1.7732815742492676,-0.45127612352371216,0.5570577383041382
1685921384609272000,4.91127197265625,-1.6108455657958984,-0.351534366607666,0.4496355950832367
1685921384619032800,4.92103271484375,-1.4564666748046875,-0.4182801842689514,0.43608394265174866
1685921384628794000,4.930794189453125,-1.3652496337890625,-0.6525542140007019,0.5194220542907715
1685921384638554600,4.9405546875,-1.158015251159668,-0.36348193883895874,0.4949556589126587
1685921384648314400,4.950314453125,-0.7367258071899414,-0.02815067768096924,0.2666972279548645
1685921384658075000,4.960074951171875,1.1330585479736328,-0.18428438901901245,-1.1339256763458252
1685921384667836400,4.96983642578125,-0.45436668395996094,1.2208181619644165,0.04591017961502075
1685921384677597000,4.979596923828125,-0.1246480941772461,0.9585299491882324,0.10451018810272217
1685921384687356700,4.989356689453125,0.12842845916748047,1.0212119817733765,0.45147308707237244
1685921384697117200,4.9991171875,0.555048942565918,1.0073177814483643,0.5790801048278809
1685921384706878700,5.008878662109375,0.7127666473388672,0.5617119073867798,0.5841283798217773
1685921384716639200,5.01863916015625,0.23659610748291016,0.2677522897720337,0.6034241318702698
1685921384726399000,5.02839892578125,-0.07526016235351562,0.24812060594558716,0.3647134304046631
1685921384736159500,5.038159423828125,-0.32430553436279297,0.3977634906768799,0.07250809669494629
1685921384745920800,5.047920654296875,-0.38919544219970703,0.3709661364555359,-0.028894901275634766
1685921384755681500,5.057681640625,-0.23941898345947266,0.3971031904220581,-0.08843976259231567
1685921384765441300,5.067441162109375,0.07456207275390625,0.5472254157066345,-0.3805866837501526
1685921384775201800,5.077201904296875,0.015350341796875,0.4838836193084717,-0.3477281928062439
1685921384784963000,5.086963134765625,0.11651229858398438,0.3886205554008484,-0.4401562213897705
1685921384794723600,5.0967236328125,0.3439474105834961,0.39201247692108154,-0.43944329023361206
1685921384804483600,5.106483642578125,0.5584430694580078,0.5853753685951233,-0.43977564573287964
1685921384814244000,5.116244140625,0.9054794311523438,0.7360296845436096,-0.5564576387405396
1685921384824005400,5.12600537109375,0.49416446685791016,0.6720499992370605,-0.21131795644760132
1685921384833766000,5.135765869140625,1.2636823654174805,0.2906200885772705,-0.4174848198890686
1685921384843525600,5.145525634765625,1.6791133880615234,0.2143149971961975,-0.2758561372756958
1685921384853286400,5.155286376953125,1.7461729049682617,0.038224220275878906,-0.21507960557937622
1685921384863047700,5.165047607421875,1.7623157501220703,-0.25048816204071045,-0.30242598056793213
1685921384872808200,5.17480810546875,1.759230613708496,-0.36285078525543213,-0.13246124982833862
1685921384882568000,5.18456787109375,2.2815399169921875,-0.28879314661026,0.13420379161834717
1685921384892328700,5.19432861328125,2.9479990005493164,-0.33538806438446045,0.4552747905254364
1685921384902090000,5.204090087890625,3.5456933975219727,-0.49933284521102905,0.7346935272216797
1685921384911850500,5.2138505859375,4.029488563537598,-0.6579392552375793,0.9634608626365662
1685921384921610200,5.2236103515625,4.132599830627441,-0.6420682072639465,1.2703496217727661
1685921384931370800,5.233370849609375,3.89479923248291,-0.5396267175674438,1.4550246000289917
1685921384941132300,5.24313232421875,3.434551239013672,-0.5304943919181824,1.407813310623169
1685921384950892800,5.252892822265625,2.4041404724121094,-1.1172685623168945,1.3828620910644531
1685921384960652500,5.262652587890625,1.731705665588379,-0.5818312168121338,0.7261002063751221
1685921384970413000,5.2724130859375,0.7212991714477539,-0.761346161365509,-0.1496366560459137
1685921384980174600,5.282174560546875,-0.3997030258178711,-1.1546326875686646,-0.819474458694458
1685921384989935000,5.29193505859375,-0.9460430145263672,-1.2483017444610596,-1.3507270812988281
1685921384999694800,5.30169482421875,-1.2873964309692383,-1.1905826330184937,-1.776424765586853
1685921385009455400,5.311455322265625,-1.5630502700805664,-1.3632882833480835,-2.083169460296631
1685921385019216600,5.321216552734375,-1.5109138488769531,-1.457772135734558,-2.1277730464935303
1685921385028977400,5.330977294921875,-1.3212499618530273,-1.688376545906067,-2.054945707321167
1685921385038737200,5.340737060546875,-0.9354181289672852,-1.8984602689743042,-1.9550358057022095
1685921385048497700,5.35049755859375,-0.5165319442749023,-1.9945369958877563,-1.6140910387039185
1685921385058259000,5.360259033203125,-0.10035228729248047,-2.041605234146118,-1.3461956977844238
1685921385068019500,5.37001953125,0.27770137786865234,-2.034205436706543,-1.075239658355713
1685921385077779200,5.379779296875,0.5298147201538086,-1.84908926486969,-0.8460707068443298
1685921385087540000,5.3895400390625,0.5133590698242188,-1.5638699531555176,-0.5919334292411804
1685921385097301200,5.39930126953125,0.21712779998779297,-1.2676541805267334,-0.3823710083961487
1685921385107061800,5.409061767578125,-0.3035106658935547,-0.9544472694396973,-0.37359440326690674
1685921385116821500,5.418821533203125,-0.6997156143188477,-0.6953123807907104,-0.362646222114563
1685921385126582300,5.428582275390625,-1.0365581512451172,-0.3515506386756897,-0.47917282581329346
1685921385136343600,5.438343505859375,-1.0537242889404297,-0.12507176399230957,-0.47859638929367065
1685921385146104000,5.44810400390625,-1.2671756744384766,0.016226530075073242,-0.21299421787261963
1685921385155863800,5.45786376953125,-1.4368925094604492,0.25096213817596436,0.06277327239513397
1685921385165624300,5.467624267578125,-1.5029010772705078,0.08465182781219482,0.2272491604089737
1685921385175385900,5.4773857421875,-1.4414005279541016,-0.11151844263076782,0.38996976613998413
1685921385185146400,5.487146484375,-1.2287139892578125,-0.24485808610916138,0.3916915953159332
1685921385194906000,5.496906005859375,-1.6055355072021484,0.04921829700469971,0.8940331339836121
1685921385204666600,5.50666650390625,-1.5438556671142578,-0.01694333553314209,0.9465059638023376
1685921385214428200,5.51642822265625,-1.1715984344482422,-0.21026909351348877,0.9892184138298035
1685921385224188700,5.526188720703125,-1.2202558517456055,-0.27823352813720703,0.9029808044433594
1685921385233948400,5.535948486328125,-1.3134651184082031,-0.2599894404411316,0.9543009400367737
1685921385243709000,5.545708984375,-1.360086441040039,-0.2742999196052551,1.1081410646438599
1685921385253470500,5.555470458984375,-1.3194389343261719,-0.33764970302581787,1.2174572944641113
1685921385263231000,5.56523095703125,-1.2513294219970703,-0.3001687526702881,1.3858247995376587
1685921385272990700,5.57499072265625,-1.048421859741211,-0.4263741374015808,1.623515009880066
1685921385282751200,5.584751220703125,-0.6756629943847656,-0.6394398212432861,1.6664493083953857
1685921385292512500,5.594512451171875,-0.3752412796020508,-0.9855936765670776,1.5425500869750977
1685921385302273300,5.604273193359375,0.06242561340332031,-0.40556544065475464,1.7613211870193481
1685921385312033000,5.614032958984375,0.3499183654785156,-0.3082978129386902,1.7322304248809814
1685921385321793500,5.62379345703125,0.5806093215942383,-0.5493888258934021,1.6750218868255615
1685921385331554800,5.633554931640625,0.3992767333984375,-0.9004984498023987,1.6270763874053955
1685921385341315600,5.643315673828125,0.2182331085205078,-0.8574771881103516,1.5729782581329346
1685921385351075300,5.653075439453125,0.1861553192138672,-0.39865177869796753,1.5240086317062378
1685921385360835800,5.6628359375,0.08104133605957031,-0.2941942811012268,1.469743013381958
1685921385370597000,5.67259716796875,-0.20662212371826172,-0.37103134393692017,0.9761704802513123
1685921385380357600,5.682357666015625,-0.6863365173339844,-0.4204244017601013,0.7079976797103882
1685921385390117400,5.692117431640625,-0.9524497985839844,-0.12203264236450195,0.6233643293380737
1685921385399878100,5.701878173828125,-1.0013761520385742,-0.012383222579956055,0.3165801167488098
1685921385409639400,5.711639404296875,-0.5356359481811523,-0.07634711265563965,0.10402940213680267
1685921385419400000,5.72139990234375,-0.3021392822265625,-0.2625391483306885,0.09868872165679932
1685921385429159700,5.73115966796875,-0.4034585952758789,-0.4267205595970154,0.20431557297706604
1685921385438920400,5.74092041015625,-0.22497940063476562,-0.9319397211074829,-0.0468796044588089
1685921385448681700,5.750681640625,-0.2394695281982422,-0.7652475237846375,0.16038334369659424
1685921385458442200,5.760442138671875,-0.10884761810302734,-0.6453065872192383,0.052727729082107544
1685921385468202000,5.770201904296875,-0.1935567855834961,-0.9359768629074097,-0.13113200664520264
1685921385477962500,5.77996240234375,-0.14658451080322266,-1.2778891324996948,-0.22326847910881042
1685921385487724000,5.78972412109375,0.8316545486450195,-1.339289903640747,0.4200417995452881
1685921385497484500,5.799484619140625,2.2924184799194336,-1.286238670349121,1.2020410299301147
1685921385507244300,5.809244384765625,3.647706985473633,-1.3872987031936646,2.0960330963134766
1685921385517004800,5.8190048828125,4.332546234130859,-1.7297115325927734,2.598632574081421
1685921385526766300,5.828766357421875,4.647374153137207,-1.661783218383789,2.0777323246002197
1685921385536526800,5.83852685546875,3.2866268157958984,-1.10989511013031,1.6412466764450073
1685921385546286600,5.84828662109375,1.4834842681884766,-1.126855492591858,1.299469232559204
1685921385556047000,5.858047119140625,0.5945816040039062,-1.4297592639923096,1.0454447269439697
1685921385565808600,5.86780859375,-0.1455984115600586,-1.740576148033142,1.1783665418624878
1685921385575569200,5.877569091796875,-0.19791603088378906,-1.7470391988754272,1.2522320747375488
1685921385585329000,5.887328857421875,-0.6820745468139648,-1.009658932685852,1.803088903427124
1685921385595089400,5.89708935546875,0.6699857711791992,-1.3291337490081787,0.19275563955307007
1685921385604851000,5.906850830078125,0.5083131790161133,-0.8473382592201233,0.2325168251991272
1685921385614611500,5.916611572265625,0.48255443572998047,-0.43294990062713623,0.20142364501953125
1685921385624371200,5.92637109375,0.5349664688110352,-0.4971485733985901,-0.40147602558135986
1685921385634131700,5.936131591796875,0.5598764419555664,-0.5958819389343262,-0.71979820728302
1685921385643893000,5.94589306640625,0.5269832611083984,-0.6518828868865967,-0.9720464944839478
1685921385653653800,5.95565380859375,0.3557853698730469,-0.7470084428787231,-1.0867644548416138
1685921385663413500,5.96541357421875,0.1254720687866211,-0.8685145378112793,-1.2944896221160889
1685921385673174000,5.975174072265625,-0.3954925537109375,-0.8730436563491821,-1.4013272523880005
1685921385682935300,5.984935302734375,-0.5561237335205078,-0.8732686042785645,-1.732994556427002
1685921385692695800,5.99469580078125,-0.9282655715942383,-0.7567411065101624,-1.892240047454834
1685921385702455800,6.004455810546875,-1.3703317642211914,-0.7647451758384705,-1.9318222999572754
1685921385712216300,6.01421630859375,-1.6424469947814941,-0.8841719031333923,-2.039092540740967
1685921385721977600,6.0239775390625,-2.3150148391723633,-1.7258191108703613,-1.4443964958190918
1685921385731738000,6.033738037109375,-2.3666396141052246,-1.6375527381896973,-2.3794105052948
1685921385741498000,6.043498046875,-4.682133674621582,-2.3818492889404297,-3.2585675716400146
1685921385751258600,6.053258544921875,-2.9028096199035645,-0.4915189743041992,-2.6212873458862305
1685921385761020000,6.06302001953125,-1.0909662246704102,3.0222082138061523,-3.5778648853302
1685921385770780400,6.072780517578125,-4.249427795410156,1.7805572748184204,-4.607280254364014
1685921385780540400,6.08254052734375,-3.392838478088379,-0.9957215189933777,-4.242733955383301
1685921385790301000,6.092301025390625,-3.3480777740478516,-0.14809489250183105,-2.6329071521759033
1685921385800062200,6.102062255859375,-2.7883286476135254,0.6219930648803711,-1.8257747888565063
1685921385809822700,6.11182275390625,-2.5701169967651367,0.3074277639389038,-1.552407145500183
1685921385819582500,6.12158251953125,-1.9528937339782715,-0.3281211853027344,-1.4150627851486206
1685921385829343200,6.13134326171875,-1.1498374938964844,-0.42008066177368164,-1.0663542747497559
1685921385839104500,6.1411044921875,-0.5099983215332031,-0.5883396863937378,-0.5195533633232117
1685921385848865000,6.150864990234375,0.002887725830078125,-0.8195056319236755,0.03540697693824768
1685921385858624800,6.160624755859375,0.39406776428222656,-0.9456325173377991,0.5395767688751221
1685921385868385500,6.170385498046875,0.7682104110717773,-1.040600061416626,0.9647716283798218
1685921385878146800,6.180146728515625,1.0812625885009766,-0.9515398740768433,1.4626551866531372
1685921385887907300,6.1899072265625,1.3996496200561523,-0.6497626900672913,1.9582130908966064
1685921385897667000,6.1996669921875,1.5519084930419922,-0.3097846508026123,2.1543002128601074
1685921385907427600,6.209427490234375,1.4986810684204102,0.04609227180480957,2.2282330989837646
1685921385917189000,6.219189208984375,1.5703010559082031,0.4651343822479248,2.267771005630493
1685921385926949600,6.22894970703125,1.3081083297729492,1.2906311750411987,2.269965648651123
1685921385936709400,6.23870947265625,1.4469470977783203,1.9393023252487183,2.2570900917053223
1685921385946470000,6.248469970703125,1.520965576171875,0.5726927518844604,1.4315192699432373
1685921385956231400,6.2582314453125,1.629812240600586,-0.0680398941040039,1.7155005931854248
1685921385965992000,6.267991943359375,1.506662368774414,0.32124781608581543,2.034942388534546
1685921385975751700,6.277751708984375,1.4504356384277344,0.40886223316192627,1.829113483428955
1685921385985512200,6.28751220703125,1.6833000183105469,1.1363329887390137,1.551613211631775
1685921385995273700,6.297273681640625,1.369359016418457,1.0796895027160645,1.3056883811950684
1685921386005034200,6.3070341796875,1.1090497970581055,0.6346588134765625,1.0353320837020874
1685921386014794000,6.3167939453125,0.8397674560546875,0.7296847105026245,1.0012876987457275
1685921386024554500,6.326554443359375,0.40396976470947266,0.6737689971923828,0.8652348518371582
1685921386034316000,6.33631591796875,0.1029195785522461,0.4475976228713989,0.46254193782806396
1685921386044076500,6.34607666015625,-0.11448192596435547,0.281283974647522,0.27359217405319214
1685921386053836300,6.355836181640625,-0.13468647003173828,-0.0129927396774292,0.022233784198760986
1685921386063596800,6.3655966796875,0.14623641967773438,-0.1918398141860962,-0.19725561141967773
1685921386073358300,6.3753583984375,0.7894668579101562,-0.24428176879882812,-0.38059455156326294
1685921386083118800,6.385118896484375,1.9334640502929688,-0.41872185468673706,-0.25970375537872314
1685921386092878600,6.394878662109375,3.394807815551758,-0.41031986474990845,0.09519737958908081
1685921386102639000,6.40463916015625,4.252754211425781,-0.44094622135162354,0.33872857689857483
1685921386112400600,6.414400634765625,4.373138427734375,-0.9516075253486633,0.5904556512832642
1685921386122161200,6.4241611328125,3.786026954650879,-0.5814744830131531,-0.06538718938827515
1685921386131921000,6.4339208984375,2.7600765228271484,-0.34172260761260986,-0.4189964532852173
1685921386141681400,6.443681396484375,1.9093914031982422,-0.49725496768951416,-0.5304934978485107
1685921386151442700,6.453442626953125,1.1311140060424805,-1.2136485576629639,-0.5148255825042725
1685921386161203500,6.463203369140625,0.1578845977783203,-1.2202092409133911,-0.5727358460426331
1685921386170963200,6.472963134765625,-0.4204540252685547,-0.7071958780288696,-1.0779036283493042
1685921386180723700,6.4827236328125,-1.087327003479004,-0.37635713815689087,-1.4938571453094482
1685921386190485000,6.492485107421875,-1.8397526741027832,-0.2053753137588501,-1.7411913871765137
1685921386200245800,6.502245849609375,-2.3190855979919434,-0.1779748797416687,-1.8319967985153198
1685921386210005500,6.512005615234375,-4.797369480133057,-1.743438482284546,-1.4023511409759521
1685921386219766000,6.52176611328125,-1.6591501235961914,-1.081339955329895,-2.7014951705932617
1685921386229527300,6.53152734375,-1.2746648788452148,0.10554563999176025,-3.031071901321411
1685921386239288000,6.5412880859375,-0.6905984878540039,0.5965849161148071,-4.181730270385742
1685921386249047800,6.5510478515625,-0.7489566802978516,0.9109606742858887,-4.734881401062012
1685921386258808300,6.560808349609375,-1.1094903945922852,0.46403980255126953,-4.182207107543945
1685921386268569600,6.570569580078125,-1.398031234741211,-0.17884337902069092,-3.3321704864501953
1685921386278330400,6.580330322265625,-1.170248031616211,-0.6599528193473816,-2.9151487350463867
1685921386288090000,6.590090087890625,-0.6853561401367188,-0.7716712355613708,-2.7398176193237305
1685921386297850600,6.5998505859375,-0.2556190490722656,-0.4231053590774536,-2.5405755043029785
1685921386307612000,6.60961181640625,-0.09556388854980469,-0.045243024826049805,-2.3855037689208984
1685921386317372700,6.61937255859375,0.10334205627441406,0.0423579216003418,-2.013889789581299
1685921386327132400,6.62913232421875,0.5510368347167969,-0.2671089172363281,-1.2880300283432007
1685921386336893000,6.638892822265625,0.4910469055175781,-0.21641099452972412,-0.48884308338165283
1685921386346654200,6.648654296875,-0.374969482421875,-0.2682138681411743,0.23855865001678467
1685921386356414700,6.658414794921875,-0.835881233215332,-0.24600422382354736,0.49028897285461426
1685921386366174700,6.6681748046875,-1.9306597709655762,-0.15434324741363525,0.6638226509094238
1685921386375935200,6.677935302734375,-1.8794746398925781,-0.5976843237876892,0.7574607133865356
1685921386385696500,6.687696533203125,0.20966243743896484,-0.7430328130722046,0.7805682420730591
1685921386395457000,6.69745703125,-0.40578269958496094,-0.876250684261322,0.7304117679595947
1685921386405217000,6.707217041015625,-0.31887149810791016,-0.7776110768318176,0.2952549457550049
1685921386414977500,6.7169775390625,0.0009012222290039062,-0.6748192310333252,-0.06457078456878662
1685921386424738800,6.72673876953125,-0.07810592651367188,-0.296261727809906,0.3013695478439331
1685921386434499300,6.736499267578125,-0.3505725860595703,-0.3406067490577698,1.0053741931915283
1685921386444259300,6.74625927734375,-0.7612285614013672,-0.4540531039237976,1.6417224407196045
1685921386454019800,6.756019775390625,-1.1739025115966797,-0.20796799659729004,1.9235633611679077
1685921386463781000,6.765781005859375,-1.5183134078979492,-0.005518198013305664,1.9169210195541382
1685921386473541600,6.775541748046875,-1.844923496246338,0.06319236755371094,1.9817253351211548
1685921386483301600,6.785301513671875,-1.9057726860046387,0.138860821723938,2.126560688018799
1685921386493062100,6.795062255859375,-1.508223056793213,0.2905247211456299,2.3493666648864746
1685921386502823400,6.804823486328125,-1.1541824340820312,0.33737897872924805,2.5605978965759277
1685921386512584000,6.814583984375,-0.9187335968017578,0.433239221572876,2.6827564239501953
1685921386522343700,6.82434375,-0.8774700164794922,0.6216148138046265,2.6773123741149902
1685921386532104400,6.8341044921875,-0.7128276824951172,0.7117631435394287,2.519834041595459
1685921386541865700,6.84386572265625,-0.4209022521972656,0.8859095573425293,2.461867094039917
1685921386551626200,6.853626220703125,-0.10000228881835938,0.9451770782470703,2.455603837966919
1685921386561386000,6.863385986328125,-0.16264724731445312,1.0657093524932861,2.4006104469299316
1685921386571146800,6.873146728515625,-0.1203298568725586,1.09763503074646,2.217665195465088
1685921386580908000,6.882907958984375,-0.1501941680908203,1.2564184665679932,1.9438238143920898
1685921386590668500,6.89266845703125,-0.3596963882446289,1.461885690689087,1.741487741470337
1685921386600428300,6.90242822265625,-0.3167572021484375,1.7132081985473633,1.4456355571746826
1685921386610189000,6.91218896484375,-0.2278919219970703,1.8362083435058594,1.1873608827590942
1685921386619950300,6.921950439453125,-0.2340106964111328,1.9666986465454102,1.047416090965271
1685921386629710800,6.9317109375,0.3217620849609375,2.1206910610198975,1.0643898248672485
1685921386639470600,6.941470703125,0.9300632476806641,2.1197667121887207,0.8410691022872925
1685921386649231400,6.9512314453125,1.3158082962036133,1.555543065071106,0.6907858848571777
1685921386658992600,6.96099267578125,1.638411521911621,0.811429500579834,0.9217971563339233
1685921386668753200,6.970753173828125,1.2323083877563477,0.815711259841919,0.4324380159378052
1685921386678513000,6.980512939453125,0.21617794036865234,0.8746991157531738,0.18699371814727783
1685921386688273400,6.9902734375,-0.587127685546875,0.825217604637146,0.7274158000946045
1685921386698035000,7.000034912109375,-0.971003532409668,1.5789960622787476,0.7687244415283203
1685921386707795500,7.00979541015625,-0.20262813568115234,2.3800292015075684,0.5516684055328369
1685921386717555200,7.01955517578125,1.0548133850097656,2.7353367805480957,-0.18011868000030518
1685921386727316000,7.02931591796875,3.4586048126220703,2.766530990600586,-1.0670772790908813
1685921386737077200,7.0390771484375,4.678400039672852,1.3356047868728638,-1.4803049564361572
1685921386746837800,7.048837646484375,5.5298261642456055,-0.49354398250579834,-1.1640074253082275
1685921386756597500,7.058597412109375,6.273002624511719,-1.9912382364273071,-1.143094778060913
1685921386766358300,7.068358154296875,6.338428497314453,-2.5094056129455566,-1.5128462314605713
1685921386776119600,7.07811962890625,5.599026679992676,-2.6989521980285645,-1.9816997051239014
1685921386785880000,7.087880126953125,3.016160011291504,-2.5174455642700195,-2.3237500190734863
1685921386795639800,7.097639892578125,0.015592575073242188,-2.3799633979797363,-2.6530637741088867
1685921386805400600,7.107400634765625,-2.5567831993103027,-2.1026041507720947,-2.274409055709839
1685921386815161900,7.117161865234375,-4.486939430236816,-1.776781439781189,-1.6829800605773926
1685921386824922400,7.12692236328125,-5.3405961990356445,-1.115891456604004,-1.406256079673767
1685921386834682000,7.13668212890625,-5.296856880187988,-0.5574313402175903,-1.0478029251098633
1685921386844443000,7.14644287109375,-4.437681198120117,-0.17820382118225098,-0.5523585081100464
1685921386854204200,7.1562041015625,-3.3838253021240234,0.17764663696289062,-0.1912318468093872
1685921386863964700,7.165964599609375,-2.4772567749023438,0.34930503368377686,-0.06831693649291992
1685921386873724400,7.175724365234375,-1.6834111213684082,0.2506197690963745,-0.1369318962097168
1685921386883485000,7.18548486328125,-0.7246627807617188,0.08232259750366211,-0.3903080224990845
1685921386893246500,7.19524658203125,0.2070770263671875,-0.19782447814941406,-0.6588250398635864
1685921386903007000,7.205007080078125,1.124715805053711,-0.45203447341918945,-0.980490505695343
1685921386912766700,7.2147666015625,1.7750864028930664,-0.5984885692596436,-1.2275700569152832
1685921386922527200,7.22452734375,2.0032033920288086,-0.6296994686126709,-1.375138759613037
1685921386932288800,7.234288818359375,3.7224044799804688,-1.0645005702972412,-1.5858256816864014
1685921386942049300,7.24404931640625,0.8697996139526367,-0.8840639591217041,-1.50642728805542
1685921386951809000,7.25380908203125,0.11924457550048828,-0.8476943969726562,-1.8205186128616333
1685921386961569500,7.263569580078125,-0.832183837890625,-0.31400585174560547,-1.8470395803451538
1685921386971331000,7.2733310546875,-1.7695832252502441,-0.3713510036468506,-1.795121192932129
1685921386981091600,7.283091552734375,-2.0832724571228027,-0.33776140213012695,-1.6269844770431519
1685921386990851300,7.292851318359375,-2.3318142890930176,-0.39164209365844727,-1.3205682039260864
1685921387000611800,7.30261181640625,-2.447207450866699,-0.4643125534057617,-0.9870383739471436
1685921387010373400,7.312373291015625,-2.5504679679870605,-0.7023047208786011,-0.9793624877929688
1685921387020134000,7.3221337890625,-2.191556453704834,-0.524193286895752,-1.248121738433838
1685921387029893600,7.3318935546875,-2.087047576904297,-0.5750962495803833,-1.2710518836975098
1685921387039654100,7.341654052734375,-1.9100852012634277,-0.7736984491348267,-0.968755841255188
1685921387049415700,7.351415771484375,-1.6584720611572266,-0.8787806034088135,-0.7650171518325806
1685921387059176200,7.36117626953125,-1.2104711532592773,-0.8083217144012451,-0.6886506080627441
1685921387068936000,7.37093603515625,-0.8525791168212891,-0.7036657333374023,-0.608410120010376
1685921387078696400,7.380696533203125,-0.46481800079345703,-0.48716211318969727,-0.4694547653198242
1685921387088458000,7.3904580078125,-0.15459823608398438,-0.233062744140625,-0.2798604965209961
1685921387098218500,7.400218505859375,0.15739917755126953,0.016523122787475586,-0.08919739723205566
1685921387107978200,7.409978271484375,0.3664894104003906,0.2671170234680176,0.07732963562011719
1685921387117738800,7.41973876953125,0.43737030029296875,0.4916098117828369,0.19521665573120117
1685921387127500300,7.429500244140625,0.46830177307128906,0.6729507446289062,0.3483628034591675
1685921387137260800,7.4392607421875,0.5261039733886719,0.777899980545044,0.4431910812854767
1685921387147020500,7.4490205078125,0.5055627822875977,0.8236420154571533,0.5545964241027832
1685921387156781000,7.458781005859375,0.5429573059082031,0.7675254344940186,0.599811315536499
1685921387166542600,7.46854248046875,0.6907138824462891,0.8552124500274658,0.6812059879302979
1685921387176303000,7.47830322265625,0.6457624435424805,0.9026284217834473,0.7658199071884155
1685921387186062800,7.488062744140625,0.3612966537475586,0.9781630039215088,0.8019931316375732
1685921387195823400,7.4978232421875,-0.04761219024658203,1.0850880146026611,0.7854200005531311
1685921387205585000,7.5075849609375,-0.5454339981079102,1.1944091320037842,0.670952558517456
1685921387215345400,7.517345458984375,-0.8367109298706055,1.2296056747436523,0.3845060169696808
1685921387225105200,7.527105224609375,-1.0158882141113281,1.0869367122650146,0.07088422775268555
1685921387234865700,7.53686572265625,-1.1026897430419922,1.0296382904052734,-0.1631116271018982
1685921387244627200,7.546627197265625,-0.9043302536010742,1.0238957405090332,-0.2574159502983093
1685921387254387700,7.5563876953125,-0.5815935134887695,1.1419246196746826,-0.29513639211654663
1685921387264147500,7.5661474609375,0.006744384765625,1.2418019771575928,-0.18840306997299194
1685921387273908000,7.575907958984375,0.6075735092163086,1.307201623916626,0.08611434698104858
1685921387283669500,7.58566943359375,0.5697669982910156,1.2357289791107178,0.38643544912338257
1685921387293430000,7.595429931640625,0.462799072265625,1.3831748962402344,0.4189281165599823
1685921387303189800,7.605189697265625,0.662297248840332,1.5804486274719238,0.39512988924980164
1685921387312950300,7.6149501953125,1.2237358093261719,1.7324752807617188,0.4098610579967499
1685921387322711800,7.6247119140625,2.1461687088012695,1.757594108581543,0.46374350786209106
1685921387332472300,7.634472412109375,3.3602094650268555,1.5835777521133423,0.43681368231773376
1685921387342232000,7.644232177734375,4.451437950134277,1.281235694885254,0.3104931116104126
1685921387351992600,7.65399267578125,5.305383682250977,0.7526099681854248,0.10869470238685608
1685921387361754000,7.663754150390625,5.695277214050293,0.11584508419036865,-0.32080918550491333
1685921387371514600,7.6735146484375,5.520659446716309,-0.5201846361160278,-0.6735566258430481
1685921387381274400,7.6832744140625,4.67071533203125,-1.0900156497955322,-1.0026459693908691
1685921387391035000,7.693034912109375,3.4591007232666016,-1.5386165380477905,-0.9763686656951904
1685921387400796400,7.70279638671875,1.9286632537841797,-1.7809779644012451,-0.8441134691238403
1685921387410557000,7.712556884765625,0.3207426071166992,-2.014791965484619,-0.6398025751113892
1685921387420316700,7.722316650390625,-1.1476669311523438,-2.0872044563293457,-0.520124614238739
1685921387430077200,7.7320771484375,-2.4441237449645996,-2.0887558460235596,-0.3836270570755005
1685921387439838700,7.741838623046875,-3.350320339202881,-1.971412181854248,-0.3730035424232483
1685921387449599200,7.75159912109375,-3.909362316131592,-1.6979962587356567,-0.45331788063049316
1685921387459359000,7.76135888671875,-3.966257095336914,-1.473679542541504,-0.501262903213501
1685921387469119500,7.771119384765625,-3.518960952758789,-1.2792987823486328,-0.4831589460372925
1685921387478881000,7.780881103515625,-2.71242094039917,-1.1349585056304932,-0.32863128185272217
1685921387488641500,7.7906416015625,-1.8327360153198242,-1.235692024230957,-0.19697248935699463
1685921387498401300,7.8004013671875,-1.1813974380493164,-1.227635383605957,-0.051506757736206055
1685921387508161800,7.810161865234375,-0.7420845031738281,-1.0993459224700928,0.07149350643157959
1685921387517923300,7.81992333984375,-0.46346092224121094,-0.9018881320953369,0.07148909568786621
1685921387527683800,7.829683837890625,-0.1829051971435547,-0.8152878284454346,0.08273226022720337
1685921387537443600,7.839443603515625,0.15645217895507812,-0.7588703632354736,0.049066007137298584
1685921387547204000,7.8492041015625,0.5041532516479492,-0.7330031394958496,-0.009626448154449463
1685921387556965600,7.858965576171875,0.8720855712890625,-0.6750583648681641,-0.015200436115264893
1685921387566726100,7.86872607421875,1.2223310470581055,-0.6866147518157959,-0.07533872127532959
1685921387576486000,7.87848583984375,1.4766645431518555,-0.7166171073913574,-0.13089948892593384
1685921387586246400,7.888246337890625,1.5881891250610352,-0.7692646980285645,-0.09542876482009888
1685921387596007700,7.898007568359375,1.2903680801391602,-0.7316584587097168,0.013892114162445068
1685921387605768400,7.9077685546875,0.7708854675292969,-0.6363265514373779,0.050710320472717285
1685921387615528200,7.917528076171875,0.020799636840820312,-0.46473872661590576,-0.0015030503273010254
1685921387625288700,7.927288818359375,-0.7183303833007812,-0.3577812910079956,-0.04051917791366577
1685921387635050000,7.937050048828125,-1.334726333618164,-0.2960014343261719,-0.17657792568206787
1685921387644810800,7.946810791015625,-1.8819241523742676,-0.21467363834381104,-0.25790393352508545
1685921387654570500,7.956570556640625,-2.0982956886291504,-0.0899362564086914,-0.28348708152770996
1685921387664331000,7.9663310546875,-2.1692514419555664,-0.043738722801208496,-0.2990490198135376
1685921387674092500,7.976092529296875,-1.9738049507141113,-0.0701221227645874,-0.26443207263946533
1685921387683853000,7.98585302734375,-1.7445406913757324,-0.1030890941619873,-0.2525860071182251
1685921387693612800,7.99561279296875,-1.4625835418701172,-0.25449812412261963,-0.24245119094848633
1685921387703373300,8.005373291015625,-1.2212324142456055,-0.3677663803100586,-0.2972649335861206
1685921387713134800,8.015134765625,-0.9656143188476562,-0.4570697546005249,-0.31341981887817383
1685921387722895400,8.024895263671874,-0.5642843246459961,-0.5630301237106323,-0.38101255893707275
1685921387732655000,8.034655029296875,-0.1270437240600586,-0.6970993280410767,-0.43109703063964844
1685921387742415600,8.04441552734375,0.11045265197753906,-0.7968837022781372,-0.488383412361145
1685921387752177200,8.05417724609375,0.2902698516845703,-0.9026762843132019,-0.5496654510498047
1685921387761937700,8.063937744140626,0.5179529190063477,-0.8767724633216858,-0.5429749488830566
1685921387771697400,8.073697509765625,0.6788873672485352,-0.7482371926307678,-0.4085627794265747
1685921387781458000,8.0834580078125,0.7997827529907227,-0.6218740940093994,-0.3068193197250366
1685921387791219200,8.09321923828125,0.9430255889892578,-0.5620712041854858,-0.12815368175506592
1685921387800980000,8.10297998046875,0.9392452239990234,-0.4508545398712158,-0.0055130720138549805
1685921387810739700,8.11273974609375,0.8486156463623047,-0.2792074680328369,0.15361237525939941
1685921387820500200,8.122500244140625,0.6498527526855469,-0.2162621021270752,0.24397563934326172
1685921387830261800,8.13226171875,0.3262977600097656,-0.17015016078948975,0.2428123950958252
1685921387840022300,8.142022216796875,0.01620197296142578,-0.08721494674682617,0.20556581020355225
1685921387849782000,8.151781982421875,-0.22365283966064453,-0.03491091728210449,0.2164837121963501
1685921387859542500,8.16154248046875,-0.37463855743408203,0.003354310989379883,0.1501697301864624
1685921387869304000,8.171303955078125,-0.48250293731689453,0.06425356864929199,0.1269514560699463
1685921387879064600,8.181064697265626,-0.4066181182861328,0.16737675666809082,0.14018583297729492
1685921387888824300,8.19082421875,-0.23337745666503906,0.15323519706726074,0.17109274864196777
1685921387898584800,8.200584716796875,-0.1630573272705078,0.14711129665374756,0.21962237358093262
1685921387908346400,8.210346435546874,-0.2807645797729492,0.13171708583831787,0.27760517597198486
1685921387918107000,8.22010693359375,-0.5334329605102539,0.17450594902038574,0.3388155698776245
1685921387927866600,8.22986669921875,-0.9545164108276367,0.1813952922821045,0.48845040798187256
1685921387937627100,8.239627197265625,-1.4705390930175781,0.15959715843200684,0.5217540264129639
1685921387947388400,8.249388427734376,-1.6892633438110352,0.36128854751586914,0.5017905235290527
1685921387957149200,8.259149169921875,-1.4847235679626465,0.7796428203582764,0.6881139278411865
1685921387966909000,8.268908935546875,-0.7423391342163086,1.2119733095169067,0.945324182510376
1685921387976669400,8.27866943359375,0.4168052673339844,1.3492774963378906,1.2676126956939697
1685921387986430700,8.2884306640625,1.6948871612548828,0.9778854846954346,1.4183090925216675
1685921387996191500,8.29819140625,2.9226198196411133,0.3622809648513794,1.3326687812805176
1685921388005951200,8.307951171875,3.9500732421875,-0.3629997968673706,1.0394835472106934
1685921388015711700,8.317711669921875,4.381270408630371,-0.9795849919319153,0.5800591707229614
1685921388025473300,8.327473388671875,4.314526557922363,-1.4489068984985352,0.010796546936035156
1685921388035233800,8.33723388671875,3.80155086517334,-1.6981403827667236,-0.38526928424835205
1685921388044993500,8.34699365234375,2.977107048034668,-1.8142093420028687,-0.6022528409957886
1685921388054754000,8.356754150390625,1.817917823791504,-1.7614408731460571,-0.5260357856750488
1685921388064515600,8.366515625,0.5941448211669922,-1.6699588298797607,-0.39555418491363525
1685921388074276000,8.376276123046875,-0.4946022033691406,-1.4815818071365356,-0.19717729091644287
1685921388084035800,8.386035888671875,-1.4358692169189453,-1.2425658702850342,0.08495593070983887
1685921388093796400,8.39579638671875,-1.930811882019043,-0.9940918684005737,0.3464467525482178
1685921388103557600,8.4055576171875,-2.1803488731384277,-0.6980002522468567,0.6267478466033936
1685921388113318400,8.415318359375,-2.154956340789795,-0.5783500075340271,0.8491142988204956
1685921388123078100,8.425078125,-1.6717982292175293,-0.5831542611122131,1.0770726203918457
1685921388132838700,8.434838623046875,-0.9011030197143555,-0.6821515560150146,1.3197771310806274
1685921388142600000,8.444599853515625,-0.2243480682373047,-0.8324331045150757,1.4462014436721802
1685921388152360700,8.454360595703125,0.16920852661132812,-0.8137765526771545,1.4370698928833008
1685921388162120400,8.464120361328124,0.36705493927001953,-0.7508861422538757,1.365531325340271
1685921388171881000,8.473880859375,0.3388948440551758,-0.6035663485527039,1.227778673171997
1685921388181642500,8.483642578125,0.2644767761230469,-0.513640820980072,1.1123461723327637
1685921388191403000,8.493403076171875,0.0006313323974609375,-0.4146909713745117,1.0247195959091187
1685921388201162800,8.503162841796875,-0.3042640686035156,-0.36996376514434814,0.795677900314331
1685921388210923300,8.51292333984375,-0.6813344955444336,-0.22524285316467285,0.6193130016326904
1685921388220684800,8.522684814453125,-0.9183387756347656,-0.09167993068695068,0.5419871807098389
1685921388230445300,8.5324453125,-1.0422515869140625,0.04545426368713379,0.46040940284729004
1685921388240205000,8.542205078125,-1.075246810913086,0.25116240978240967,0.4275641441345215
1685921388249965600,8.551965576171876,-1.049199104309082,0.33548688888549805,0.20016908645629883
1685921388259726800,8.561726806640625,-0.9766750335693359,0.17997217178344727,0.030315399169921875
1685921388269487600,8.571487548828125,-1.0033674240112305,0.13317036628723145,0.03788280487060547
1685921388279247400,8.581247314453124,-0.7064542770385742,-0.0008398294448852539,0.004794716835021973
1685921388289007900,8.5910078125,-0.24176025390625,-0.16494500637054443,-0.015343666076660156
1685921388298769200,8.60076904296875,0.37679576873779297,-0.08811652660369873,0.12913942337036133
1685921388308530000,8.610530029296875,0.49546337127685547,0.020134449005126953,0.5903304815292358
1685921388318289700,8.62028955078125,1.2918663024902344,0.45428264141082764,0.8774057626724243
1685921388328050200,8.63005029296875,1.84747314453125,0.47303307056427,0.9143264293670654
1685921388337811700,8.639811767578125,1.0929298400878906,0.5711948871612549,0.7115970849990845
1685921388347572200,8.649572265625,0.8246259689331055,1.3868426084518433,0.5960029363632202
1685921388357332000,8.65933203125,1.2153549194335938,1.3255598545074463,0.09991657733917236
1685921388367092500,8.669092529296876,0.30154895782470703,0.5603005886077881,0.13626420497894287
1685921388376854000,8.67885400390625,-0.9048280715942383,0.5777566432952881,-0.26668763160705566
1685921388386614500,8.688614501953126,-1.9454269409179688,0.745972752571106,-1.5882960557937622
1685921388396374300,8.698374267578124,-2.725766658782959,-0.00048553943634033203,-0.48839902877807617
1685921388406134800,8.708134765625,-2.007251262664795,0.18403172492980957,0.014246344566345215
1685921388415896300,8.717896240234374,-1.5376029014587402,0.4410851001739502,0.3721001148223877
1685921388425656800,8.72765673828125,-2.1442604064941406,0.711455225944519,0.3192330598831177
1685921388435416600,8.73741650390625,-1.1509819030761719,0.8210583925247192,0.03263986110687256
1685921388445177000,8.747177001953125,-0.621251106262207,-0.14962363243103027,1.3172568082809448
1685921388454938400,8.7569384765625,-0.2781867980957031,-1.0858259201049805,0.6077221632003784
1685921388464699100,8.76669921875,-1.280649185180664,-1.2494962215423584,-0.4256027936935425
1685921388474459000,8.776458984375,-2.8115758895874023,0.13706374168395996,-2.0936803817749023
1685921388484219400,8.786219482421876,-1.5978193283081055,1.1274718046188354,-2.003187417984009
1685921388493981000,8.79598095703125,-0.4442472457885742,0.3249204158782959,-0.1498405933380127
1685921388503741400,8.805741455078126,-0.490478515625,-0.6362984776496887,1.1821253299713135
1685921388513501200,8.815501220703124,-0.9063405990600586,-0.7495269775390625,1.8323485851287842
1685921388523261700,8.82526171875,-1.0638608932495117,0.12364339828491211,1.5757415294647217
1685921388533023200,8.835023193359374,-1.1868391036987305,0.9462060928344727,1.1990272998809814
1685921388542783700,8.84478369140625,-2.192898750305176,0.8850631713867188,0.559760570526123
1685921388552543500,8.85454345703125,-2.0168142318725586,0.37456440925598145,0.048043131828308105
1685921388562304000,8.864303955078125,-0.5717039108276367,-0.20054805278778076,0.023975729942321777
1685921388572065500,8.8740654296875,1.3014259338378906,-0.7302926182746887,0.48915067315101624
1685921388581826000,8.883825927734375,3.133397102355957,-0.7588157057762146,0.9969359040260315
1685921388591585800,8.893585693359375,4.332500457763672,-0.4917818307876587,1.2269834280014038
1685921388601346300,8.90334619140625,4.5423173904418945,-0.2776951789855957,1.475158452987671
1685921388611107800,8.91310791015625,3.950838088989258,-0.2119077444076538,1.956488013267517
1685921388620868400,8.922868408203126,2.2862043380737305,-0.3441535234451294,2.881564140319824
1685921388630628000,8.932628173828125,0.7207775115966797,-0.4572114944458008,2.6075832843780518
1685921388640388600,8.942388671875,-1.1445655822753906,-0.5458015203475952,1.9876714944839478
1685921388650150100,8.952150146484374,-2.7292423248291016,-0.33969056606292725,1.3220350742340088
1685921388659910700,8.96191064453125,-3.587423801422119,-0.4935041666030884,0.1164599359035492
1685921388669670400,8.97167041015625,-3.9669346809387207,-0.5243202447891235,-0.5595210790634155
1685921388679431000,8.981430908203125,-4.1139631271362305,-0.7239757776260376,1.7275753021240234
1685921388689192400,8.9911923828125,-2.4793429374694824,-0.5154973268508911,3.2821969985961914
1685921388698953000,9.000952880859375,-1.2976665496826172,0.13449418544769287,3.8295114040374756
1685921388708712700,9.010712646484375,-1.6137356758117676,0.6499603986740112,3.942882537841797
1685921388718473200,9.02047314453125,-2.3695101737976074,0.8164567947387695,3.68647837638855
1685921388728234800,9.03023486328125,-2.9064693450927734,0.952682375907898,3.303568124771118
1685921388737995300,9.039995361328126,-2.873805522918701,0.7544786930084229,3.0154058933258057
1685921388747755000,9.049755126953125,-2.1473703384399414,0.5637738704681396,2.8342068195343018
1685921388757515500,9.059515625,-0.8499040603637695,0.47113609313964844,2.3312437534332275
1685921388767277000,9.069277099609375,0.02379894256591797,0.6528486013412476,2.256011486053467
1685921388777037600,9.07903759765625,0.7344379425048828,0.900324821472168,1.9661884307861328
1685921388786797300,9.08879736328125,0.3059062957763672,0.6081737279891968,2.1651463508605957
1685921388796557800,9.098557861328125,-0.6561059951782227,0.279369592666626,1.962900996208191
1685921388806319400,9.1083193359375,-1.689140796661377,0.04938006401062012,2.0285489559173584
1685921388816080000,9.118079833984375,-3.114226818084717,0.4722045660018921,1.2419461011886597
1685921388825839600,9.127839599609375,-4.948671817779541,-2.642479658126831,0.31238093972206116
1685921388835600100,9.13760009765625,-3.0126094818115234,-2.0648446083068848,-2.0587077140808105
1685921388845361700,9.147361572265625,-2.3822131156921387,-1.974181056022644,-0.97730553150177
1685921388855122200,9.1571220703125,-2.7683515548706055,-2.8283584117889404,-0.8267608284950256
1685921388864882000,9.1668818359375,-2.7606701850891113,-4.002429008483887,-1.43257737159729
1685921388874642400,9.176642333984375,-1.7296066284179688,-1.1607699394226074,-1.3439264297485352
1685921388884404000,9.186404052734375,-0.7641801834106445,1.1267149448394775,-1.7657885551452637
1685921388894164500,9.19616455078125,1.6579580307006836,4.101753234863281,-0.8160507082939148
1685921388903924200,9.20592431640625,1.7358922958374023,6.221002101898193,-0.11663639545440674
1685921388913684700,9.215684814453125,-1.2597646713256836,4.358893871307373,1.0434143543243408
1685921388923446300,9.2254462890625,-3.620600700378418,0.7516070604324341,-0.34518104791641235
1685921388933206800,9.235206787109375,-4.843623638153076,-1.998077630996704,-2.508812189102173
1685921388942966500,9.244966552734375,-4.988349437713623,-3.771040439605713,-3.676302433013916
1685921388952727000,9.25472705078125,-4.8433613777160645,-4.823180198669434,-3.787320852279663
1685921388962488600,9.264488525390625,-4.519352912902832,-4.206392288208008,-3.698812246322632
1685921388972249000,9.2742490234375,-3.7500452995300293,-3.027972459793091,-3.2803962230682373
1685921388982008800,9.2840087890625,-3.568044662475586,-2.204181432723999,-2.675326347351074
1685921388991769300,9.293769287109376,-3.856390953063965,-2.0965523719787598,-2.986065626144409
1685921389001531000,9.30353076171875,-3.4767723083496094,-2.8185200691223145,-3.524052858352661
1685921389011291400,9.31329150390625,-2.618499755859375,-3.652064561843872,-3.5116519927978516
1685921389021051100,9.323051025390624,-1.6019377708435059,-3.5035133361816406,-3.418771743774414
1685921389030811600,9.332811767578125,-0.5770511627197266,-2.927727699279785,-3.225005626678467
1685921389040573200,9.3425732421875,0.24548625946044922,-2.191899061203003,-2.7660858631134033
1685921389050333700,9.352333740234375,1.031285285949707,-1.5262479782104492,-2.0433411598205566
1685921389060093400,9.362093505859375,1.312016487121582,-0.8748042583465576,-1.6584093570709229
1685921389069854000,9.37185400390625,1.225092887878418,0.04935640096664429,-1.4670131206512451
1685921389079615500,9.381615478515625,0.05615711212158203,-0.06522059440612793,-2.1359705924987793
1685921389089376000,9.3913759765625,0.05971050262451172,0.44866830110549927,-2.97737717628479
1685921389099135700,9.4011357421875,-0.031175613403320312,0.8770591616630554,-3.692513942718506
1685921389108896300,9.410896240234376,0.4001913070678711,0.6964364647865295,-3.7053310871124268
1685921389118657800,9.42065771484375,2.240725517272949,0.28617823123931885,-3.2272634506225586
1685921389128418300,9.430418212890626,4.4692230224609375,0.1764078140258789,-2.566314697265625
1685921389138178000,9.440177978515624,5.964156150817871,0.0056449174880981445,-1.5620688199996948
1685921389147938600,9.4499384765625,7.4553022384643555,0.0962722897529602,-0.33959758281707764
1685921389157700000,9.4597001953125,8.384028434753418,0.4089284837245941,0.5225913524627686
1685921389167460600,9.469460693359375,7.794930458068848,0.35749709606170654,1.079300880432129
1685921389177220400,9.479220458984376,6.320631980895996,1.6530485153198242,1.3852651119232178
1685921389186980900,9.48898095703125,3.691497802734375,2.6808712482452393,1.481318473815918
1685921389196742400,9.498742431640625,1.5075702667236328,3.1091630458831787,1.288023829460144
1685921389206503000,9.5085029296875,-0.27188587188720703,3.5027878284454346,0.9596150517463684
1685921389216262700,9.5182626953125,-1.4345073699951172,3.637514352798462,0.38699960708618164
1685921389226023200,9.528023193359376,-2.312462329864502,3.2311532497406006,-0.4837225377559662
1685921389235784700,9.53778466796875,-2.3859472274780273,2.106191396713257,-1.228276252746582
1685921389245545200,9.547545166015626,-2.057535171508789,-0.04607149958610535,-2.136484146118164
1685921389255305000,9.557304931640624,-0.15944671630859375,1.8410754203796387,0.11377124488353729
1685921389265065500,9.5670654296875,2.6849985122680664,4.2598876953125,3.519028902053833
1685921389274827000,9.576826904296874,6.142950057983398,5.8691534996032715,6.3512163162231445
1685921389284587500,9.58658740234375,5.99894905090332,6.5949788093566895,6.786863803863525
1685921389294347300,9.59634716796875,2.916316032409668,6.007808685302734,4.529908657073975
1685921389304108000,9.60610791015625,-0.12187862396240234,4.376839637756348,1.9496711492538452
1685921389313869300,9.615869384765626,-3.2551140785217285,2.486788034439087,-0.09237757325172424
1685921389323629800,9.6256298828125,-5.728751182556152,1.5669786930084229,-1.7868778705596924
1685921389333389600,9.6353896484375,-6.006157875061035,1.1051485538482666,-2.4643659591674805
1685921389343150000,9.645150146484376,-5.518553733825684,1.6214122772216797,-1.3615615367889404
1685921389352911600,9.65491162109375,-4.578063488006592,2.237903118133545,0.2928316593170166
1685921389362672000,9.664672119140626,-2.1547093391418457,1.619255542755127,0.8824112415313721
1685921389372432000,9.674431884765625,0.9292068481445312,0.044378072023391724,0.3493584394454956
1685921389382192400,9.6841923828125,1.9270849227905273,-1.9854520559310913,-1.0662182569503784
1685921389391954000,9.693953857421874,0.6951971054077148,-4.200110912322998,-2.72896146774292
1685921389401714400,9.70371435546875,-2.1247334480285645,-4.700675964355469,-3.4612698554992676
1685921389411474200,9.71347412109375,-5.773643493652344,-4.5821638107299805,-3.1233551502227783
1685921389421235000,9.72323486328125,-9.674748420715332,-3.435181140899658,-3.5127124786376953
1685921389430996200,9.732996337890626,-13.40771484375,-1.63518226146698,-5.812841415405273
1685921389440756700,9.7427568359375,-14.874837875366211,-0.3676466941833496,-8.179535865783691
1685921389450516500,9.7525166015625,-13.905168533325195,-0.7169886827468872,-9.581249237060547
1685921389460277200,9.76227734375,-9.92811393737793,-2.3750972747802734,-10.141871452331543
1685921389470038500,9.77203857421875,-2.9443840980529785,-4.808839797973633,-7.766860485076904
1685921389479799000,9.781799072265626,6.3214111328125,-6.396256923675537,-1.762203574180603
1685921389489558800,9.791558837890625,15.131170272827148,-3.7839906215667725,8.107561111450195
1685921389499319300,9.8013193359375,19.975574493408203,4.252347946166992,18.30042266845703
1685921389509080800,9.811080810546875,18.15885353088379,6.750786304473877,22.069522857666016
1685921389518841300,9.82084130859375,12.165209770202637,5.798861503601074,20.703407287597656
1685921389528601000,9.83060107421875,5.03306770324707,3.9515812397003174,16.636734008789062
1685921389538361900,9.84036181640625,-3.9442033767700195,2.3607258796691895,11.035284042358398
1685921389548123100,9.850123046875,-10.029184341430664,1.426604986190796,3.8968732357025146
1685921389557883600,9.859883544921875,-13.25381088256836,1.8770116567611694,-3.1418988704681396
1685921389567643400,9.869643310546875,-10.655771255493164,0.16308221220970154,-8.818719863891602
1685921389577404200,9.879404052734374,-1.2180414199829102,-5.884566307067871,-13.572389602661133
1685921389587165400,9.88916552734375,8.888107299804688,-7.103081703186035,-10.892853736877441
1685921389596926000,9.898926025390624,11.568099975585938,-3.751894474029541,0.11998844146728516
1685921389606685700,9.908685791015625,6.993778228759766,-2.315458059310913,0.8609144687652588
1685921389616446500,9.918446533203126,6.923261642456055,-7.699047565460205,-6.012063980102539
1685921389626207700,9.928207763671875,10.302021980285645,-17.12697410583496,-16.03468894958496
1685921389635968300,9.93796826171875,15.126067161560059,-25.57563018798828,-23.799650192260742
1685921389645728000,9.94772802734375,14.128888130187988,-27.056419372558594,-22.1398983001709
1685921389655488800,9.95748876953125,9.398519515991211,-22.52213478088379,-9.87319564819336
1685921389665250000,9.96725,2.060246467590332,-13.098753929138184,4.909894943237305
1685921389675010600,9.977010498046875,-4.734374523162842,-3.5440633296966553,19.268749237060547
1685921389684770300,9.986770263671875,-8.810696601867676,2.0061163902282715,27.955612182617188
1685921389694531000,9.996531005859374,-10.115132331848145,3.590752601623535,30.821020126342773
1685921389704292400,10.006292236328125,-11.482145309448242,2.486926794052124,25.63784408569336
1685921389714052900,10.016052978515624,-10.347310066223145,-1.5759954452514648,16.375085830688477
1685921389723812900,10.025812744140625,-6.519428253173828,-5.618568420410156,8.831209182739258
1685921389733573400,10.035573486328126,0.3174562454223633,-9.022711753845215,3.13273286819458
1685921389743334700,10.045334716796875,8.860722541809082,-12.801666259765625,-3.2091240882873535
1685921389753095200,10.05509521484375,10.585831642150879,-16.903583526611328,-10.484567642211914
1685921389762855200,10.064855224609374,7.350885391235352,-15.787960052490234,-12.73034954071045
1685921389772615700,10.07461572265625,4.242193222045898,-11.976860046386719,-9.695300102233887
1685921389782377000,10.084376953125,2.6019906997680664,-7.792638301849365,-5.228907585144043
1685921389792137500,10.094137451171875,1.8511590957641602,-4.675314903259277,0.10992145538330078
1685921389801897200,10.103897216796875,1.1946945190429688,-0.5130144357681274,6.4939069747924805
1685921389811658000,10.113657958984374,2.6283178329467773,4.321990966796875,11.807910919189453
1685921389821419300,10.123419189453125,3.0130386352539062,9.74663257598877,16.234079360961914
1685921389831179800,10.1331796875,2.189434051513672,15.403968811035156,17.52091407775879
1685921389840939800,10.142939697265625,-4.406757354736328,26.892202377319336,0.3888673782348633
1685921389850700300,10.1527001953125,11.317225456237793,30.321680068969727,9.80472183227539
1685921389860461600,10.162461669921875,16.934364318847656,13.676267623901367,14.92487621307373
1685921389870222000,10.17222216796875,11.419760704040527,-0.21817147731781006,7.477335453033447
1685921389879982000,10.181982177734374,-3.802408218383789,-10.634749412536621,-2.8207931518554688
1685921389889742600,10.19174267578125,-14.290552139282227,-14.895787239074707,-8.494867324829102
1685921389899503900,10.20150390625,-17.116737365722656,-17.113584518432617,-9.878957748413086
1685921389909264600,10.2112646484375,-10.971166610717773,-18.054420471191406,-9.779879570007324
1685921389919024400,10.2210244140625,-2.4041380882263184,-17.343181610107422,-7.645556926727295
1685921389928785000,10.230784912109375,2.11080265045166,-12.71320915222168,-3.5076427459716797
1685921389938546200,10.240546142578125,4.724587440490723,-8.307695388793945,-0.9558875560760498
1685921389948307000,10.250306884765624,5.304384231567383,-5.162270545959473,-1.3492827415466309
1685921389958066700,10.260066650390625,5.734525680541992,-2.135127305984497,-0.8258066177368164
1685921389967827200,10.2698271484375,7.326292991638184,1.0812022686004639,-0.22609663009643555
1685921389977588500,10.27958837890625,4.949357986450195,3.531090021133423,2.1878457069396973
1685921389987349200,10.289349365234376,4.260218620300293,4.43743371963501,3.024578094482422
1685921389997109000,10.29910888671875,1.8111944198608398,2.822836399078369,2.743236541748047
1685921390006869500,10.308869384765625,-0.9964194297790527,1.2768417596817017,2.028529167175293
1685921390016630800,10.318630859375,-3.2577338218688965,0.3223758935928345,1.280782699584961
1685921390026391600,10.3283916015625,-4.885751724243164,0.20537012815475464,0.6442341804504395
1685921390036151300,10.3381513671875,-4.890267372131348,1.0299371480941772,0.6203188896179199
1685921390045911800,10.347911865234375,-3.3493242263793945,1.8544034957885742,0.9559235572814941
1685921390055673000,10.357673095703126,-1.2703356742858887,2.6429362297058105,0.8824503421783447
1685921390065433900,10.367433837890625,1.3572731018066406,2.6742310523986816,-0.17261743545532227
1685921390075193600,10.377193603515625,3.379143714904785,2.0862598419189453,-1.0130314826965332
1685921390084954000,10.3869541015625,3.710221290588379,1.3667807579040527,-1.5830235481262207
1685921390094715400,10.39671533203125,2.847262382507324,0.635486364364624,-2.543369770050049
1685921390104476200,10.40647607421875,2.30318546295166,0.046671271324157715,-3.123455047607422
1685921390114236000,10.41623583984375,1.5449466705322266,-0.30457210540771484,-3.1024065017700195
1685921390123996400,10.425996337890625,-0.29014110565185547,-0.36203253269195557,-2.1909561157226562
1685921390133757700,10.4357578125,-1.276998519897461,-0.1435365080833435,-1.5027620792388916
1685921390143518500,10.4455185546875,-1.2155723571777344,0.16613221168518066,-0.9713578224182129
1685921390153278200,10.4552783203125,-1.398963451385498,0.6477083563804626,-0.4853477478027344
1685921390163038700,10.465038818359375,-0.8308811187744141,1.267742395401001,0.028993844985961914
1685921390172800000,10.474800048828126,-0.19271564483642578,1.7339167594909668,0.4757375717163086
1685921390182560800,10.484560791015625,0.019945144653320312,1.8217297792434692,0.6797919273376465
1685921390192320500,10.494320556640625,-0.07085990905761719,1.7818739414215088,0.9938840866088867
1685921390202081000,10.5040810546875,-0.4772939682006836,1.234755277633667,0.8987712860107422
1685921390211842600,10.513842529296875,-1.0909342765808105,0.21838295459747314,0.7282464504241943
1685921390221603000,10.52360302734375,-1.6197776794433594,-0.7742033004760742,0.4992806911468506
1685921390231362800,10.53336279296875,-1.7164230346679688,-1.401942491531372,0.6183257102966309
1685921390241123300,10.543123291015625,-0.7944793701171875,-1.790776252746582,0.6041278839111328
1685921390250884600,10.552884521484375,0.31729698181152344,-1.56692636013031,0.5334179401397705
1685921390260645400,10.562645263671875,0.22621822357177734,-1.192229986190796,0.7234182357788086
1685921390270405000,10.572405029296876,0.5937623977661133,-0.6319610476493835,0.7552242279052734
1685921390280165600,10.58216552734375,0.5129003524780273,-0.3327438235282898,0.7181158065795898
1685921390289927200,10.59192724609375,0.20928287506103516,-0.12075662612915039,0.4021730422973633
1685921390299687700,10.601687744140625,0.1176443099975586,0.07425099611282349,0.0548861026763916
1685921390309447400,10.611447509765625,0.16359424591064453,0.149586021900177,-0.2714049816131592
1685921390319208000,10.6212080078125,-0.0000438690185546875,0.17621678113937378,-0.578589677810669
1685921390328969500,10.630969482421875,-0.032301902770996094,1.0417119264602661,-1.174074649810791
1685921390338730000,10.64072998046875,0.9122095108032227,1.2298164367675781,-1.2008068561553955
1685921390348489700,10.65048974609375,-0.0822601318359375,0.2646370530128479,-0.9604074954986572
1685921390358250200,10.660250244140625,-1.0451040267944336,0.3424280881881714,-0.5923547744750977
1685921390368011800,10.67001171875,-0.7190866470336914,0.8286282420158386,-0.7579057216644287
1685921390377772300,10.679772216796875,-0.3177804946899414,0.9001392126083374,-0.5947577953338623
1685921390387532000,10.689531982421874,0.10640239715576172,0.8680307269096375,-0.21906685829162598
1685921390397292500,10.69929248046875,0.24733543395996094,0.5410228967666626,0.23473381996154785
1685921390407054000,10.70905419921875,0.2166147232055664,0.2637118101119995,0.6589901447296143
1685921390416814600,10.718814697265625,-0.3520326614379883,-0.437174916267395,1.5312519073486328
1685921390426574300,10.72857421875,0.3409280776977539,-1.1907966136932373,1.1562602519989014
1685921390436334800,10.7383349609375,1.5074434280395508,-1.7419562339782715,0.18301796913146973
1685921390446096400,10.748096435546875,2.326035499572754,-1.8795065879821777,-0.8165420293807983
1685921390455857000,10.75785693359375,1.409531593322754,-1.1650923490524292,-0.6878421306610107
1685921390465616600,10.76761669921875,-0.18653488159179688,-0.17024612426757812,0.05564689636230469
1685921390475377400,10.77737744140625,-0.5716352462768555,0.18979305028915405,0.15801215171813965
1685921390485138700,10.787138671875,-0.4864349365234375,0.4528980255126953,0.0017452239990234375
1685921390494899200,10.796899169921875,-0.3262300491333008,0.6054724454879761,-0.10911059379577637
1685921390504659000,10.806658935546874,-0.22741127014160156,0.45016252994537354,-0.12101531028747559
1685921390514419500,10.81641943359375,-0.15799903869628906,0.25453054904937744,-0.09349203109741211
1685921390524181000,10.826180908203124,-0.05381488800048828,0.07417011260986328,-0.02107524871826172
1685921390533941500,10.83594140625,-0.3032045364379883,-0.261232852935791,-0.017848968505859375
1685921390543701200,10.845701171875,0.07556915283203125,-0.6511824131011963,-0.18755698204040527
1685921390553462000,10.8554619140625,0.5615758895874023,-0.6382230520248413,-0.12253046035766602
1685921390563223300,10.865223388671875,0.6289434432983398,-0.16739428043365479,0.18408584594726562
1685921390572983800,10.87498388671875,0.26299190521240234,0.26675814390182495,0.32417917251586914
1685921390582743600,10.88474365234375,-0.2516193389892578,0.3160257935523987,0.28918004035949707
1685921390592504300,10.89450439453125,-0.483306884765625,0.2527996301651001,0.2180309295654297
1685921390602265600,10.904265625,-0.3176155090332031,-0.0036475658416748047,-0.03348040580749512
1685921390612026000,10.914026123046876,0.023499488830566406,-0.26625382900238037,-0.07765030860900879
1685921390621786000,10.9237861328125,0.10100936889648438,-0.34255027770996094,0.019156694412231445
1685921390631546600,10.933546630859375,0.16947364807128906,-0.3926975727081299,0.06738519668579102
1685921390641308000,10.943307861328124,0.2057504653930664,-0.2683570384979248,0.1694931983947754
1685921390651068400,10.953068359375,0.18310165405273438,0.1701493263244629,-0.1456456184387207
1685921390660828200,10.962828125,-0.15569210052490234,0.3467269539833069,-0.28791189193725586
1685921390670589000,10.9725888671875,-0.3586149215698242,0.5160659551620483,0.015442848205566406
1685921390680350200,10.98235009765625,-0.27866268157958984,0.33021795749664307,0.04879307746887207
1685921390690110700,10.99211083984375,-0.04269599914550781,0.10272055864334106,-0.026552677154541016
1685921390699870500,11.001870361328125,-0.015227317810058594,-0.15929877758026123,-0.017202138900756836
1685921390709631200,11.01163134765625,-0.14907264709472656,-0.4362853765487671,0.03819704055786133
1685921390719392500,11.021392578125,-0.06549930572509766,-0.3009272813796997,-0.09146857261657715
1685921390729153000,11.031153076171876,0.09490013122558594,-0.17520809173583984,-0.0679168701171875
1685921390738913000,11.0409130859375,0.05463886260986328,-0.15316474437713623,0.13777899742126465
1685921390748673500,11.050673583984375,-0.0023250579833984375,-0.21352100372314453,0.31650614738464355
1685921390758434800,11.060434814453124,0.14639854431152344,-0.22096264362335205,0.34377431869506836
1685921390768195600,11.070195556640625,0.06043815612792969,-0.21995878219604492,0.2866976261138916
1685921390777955300,11.079955322265626,0.0025882720947265625,-0.1020805835723877,0.14436554908752441
1685921390787715800,11.0897158203125,-0.10045719146728516,-0.09766542911529541,0.04719734191894531
1685921390797477000,11.09947705078125,-0.08112525939941406,-0.13444936275482178,-0.056079864501953125
1685921390807237600,11.109237548828125,-0.18383502960205078,-0.06072664260864258,-0.1102750301361084
1685921390816997600,11.11899755859375,-0.07126426696777344,0.09229278564453125,-0.03304862976074219
1685921390826758100,11.128758056640624,0.05119895935058594,-0.018071651458740234,0.02942633628845215
1685921390836519400,11.13851953125,0.10685920715332031,-0.12130451202392578,0.07819533348083496
1685921390846280200,11.1482802734375,-0.0002193450927734375,-0.17660057544708252,0.18495535850524902
1685921390856040000,11.1580400390625,-0.07666683197021484,-0.04776036739349365,0.23448896408081055
1685921390865800400,11.167800537109375,-0.09140396118164062,-0.14909017086029053,0.10679507255554199
1685921390875561700,11.177561767578124,-0.08953380584716797,-0.07780241966247559,-0.04846501350402832
1685921390885322500,11.187322509765625,0.04175758361816406,-0.10326027870178223,-0.018297672271728516
1685921390895082200,11.197082275390626,0.11113739013671875,-0.13559460639953613,0.09586048126220703
1685921390904842800,11.2068427734375,-0.022706985473632812,-0.011213302612304688,0.128326416015625
1685921390914604000,11.21660400390625,-0.032088279724121094,-0.03101968765258789,0.03646373748779297
1685921390924364800,11.22636474609375,-0.026467323303222656,-0.0594172477722168,0.0528867244720459
1685921390934124500,11.23612451171875,-0.004187583923339844,-0.08919775485992432,0.11290788650512695
