time,seconds_elapsed,z,y,x
1685921379805213200,0.107213134765625,9.247661590576172,1.8388842344284058,-0.46031925082206726
1685921379815168800,0.117168701171875,9.29312515258789,1.8388842344284058,-0.3813561201095581
1685921379825124400,0.127124267578125,9.32183837890625,1.8939191102981567,-0.4004986882209778
1685921379835080000,0.137079833984375,9.486943244934082,1.8963119983673096,-0.359820693731308
1685921379845035500,0.147035400390625,9.626026153564453,1.963310956954956,-0.26889345049858093
1685921379854991000,0.1569912109375,9.695418357849121,1.9537396430969238,-0.23030917346477509
1685921379864946700,0.16694677734375,9.764810562133789,2.0829520225524902,-0.12023933976888657
1685921379874902500,0.176902587890625,9.781559944152832,2.1311075687408447,-0.09870393574237823
1685921379884858000,0.186858154296875,9.882058143615723,2.150250196456909,-0.046061836183071136
1685921379894813700,0.196813720703125,9.922736167907715,2.1693928241729736,-0.014955141581594944
1685921379904769300,0.206769287109375,10.044770240783691,2.1526429653167725,0.028115665540099144
1685921379914725000,0.21672509765625,10.06152057647705,2.23639178276062,0.07597211748361588
1685921379924680700,0.2266806640625,10.07587718963623,2.2842483520507812,0.14297115802764893
1685921379934636300,0.23663623046875,9.925128936767578,2.336890459060669,0.22193430364131927
1685921379944592000,0.246591796875,9.676275253295898,2.4684956073760986,0.1621137410402298
1685921379954547700,0.256547607421875,9.06580638885498,2.525923490524292,0.14775680005550385
1685921379964503300,0.26650341796875,8.529515266418457,2.6937201023101807,0.047258246690034866
1685921379974459100,0.276459228515625,8.294719696044922,2.868396043777466,-0.005383851006627083
1685921379984414700,0.286414794921875,8.675477981567383,2.971287488937378,0.028115665540099144
1685921379994368500,0.296368408203125,9.561420440673828,2.8420751094818115,0.2602194547653198
1685921380004324000,0.306323974609375,10.791929244995117,2.45413875579834,0.4950151741504669
1685921380014280000,0.316280029296875,11.90040397644043,2.1287147998809814,0.516550600528717
1685921380024235500,0.326235595703125,12.79322624206543,1.781456470489502,0.5021936297416687
1685921380034191000,0.336191162109375,13.31276798248291,1.3648061752319336,0.46869412064552307
1685921380044147000,0.34614697265625,13.118948936462402,1.103988528251648,0.2721835672855377
1685921380054102500,0.3561025390625,12.055937767028809,1.0968101024627686,-0.04366901144385338
1685921380064058000,0.36605810546875,10.696216583251953,1.3145569562911987,-0.4627120792865753
1685921380074014000,0.376013916015625,9.599705696105957,1.450947880744934,-0.7713862061500549
1685921380083969500,0.385969482421875,8.768797874450684,1.5852450132369995,-0.9750752449035645
1685921380093925400,0.39592529296875,8.189435958862305,1.6666009426116943,-1.0995019674301147
1685921380103881000,0.405880859375,7.88076114654541,1.690529227256775,-1.2406785488128662
1685921380113836500,0.41583642578125,7.9621171951293945,1.6929219961166382,-1.2646067142486572
1685921380123792400,0.42579248046875,8.335397720336914,1.6091731786727905,-1.0971091985702515
1685921380133748000,0.435748046875,8.88365364074707,1.566102385520935,-0.8171489238739014
1685921380143703600,0.44570361328125,9.276374816894531,1.5514464378356934,-0.5081757307052612
1685921380153568300,0.455568359375,9.508479118347168,1.6761722564697266,-0.14656038582324982
1685921380163335400,0.46533544921875,9.580562591552734,1.805384635925293,0.15493527054786682
1685921380173096400,0.475096435546875,9.544670104980469,1.95852530002594,0.4208376705646515
1685921380182857200,0.484857177734375,9.290732383728027,2.1287147998809814,0.6792625188827515
1685921380192617500,0.494617431640625,9.046664237976074,2.26749849319458,0.8204390406608582
1685921380202377500,0.50437744140625,8.941081047058105,2.439781904220581,0.9810572862625122
1685921380212138500,0.514138427734375,8.807083129882812,2.5378875732421875,1.1198409795761108
1685921380221899500,0.5238994140625,8.80469036102295,2.5594229698181152,1.1676974296569824
1685921380231659500,0.533659423828125,8.926724433898926,2.533101797103882,1.1629117727279663
1685921380241419800,0.543419677734375,9.20698356628418,2.4206392765045166,1.1198409795761108
1685921380251180500,0.5531806640625,9.441479682922363,2.2555344104766846,1.0169496536254883
1685921380260941600,0.562941650390625,9.582955360412598,2.0542383193969727,0.8877372145652771
1685921380270701800,0.572701904296875,9.769596099853516,1.8819550275802612,0.6314060688018799
1685921380280461800,0.5824619140625,9.941879272460938,1.6618152856826782,0.45912283658981323
1685921380290222800,0.592222900390625,10.051948547363281,1.4605190753936768,0.22193430364131927
1685921380299984000,0.60198388671875,9.994521141052246,1.3767703771591187,-0.010169495828449726
1685921380309744000,0.611744140625,9.915557861328125,1.3097712993621826,-0.19680966436862946
1685921380319504100,0.621504150390625,9.626026153564453,1.3073785305023193,-0.28564319014549255
1685921380329265200,0.63126513671875,9.352945327758789,1.415055513381958,-0.3717848062515259
1685921380339026000,0.64102587890625,8.945866584777832,1.5442678928375244,-0.37417763471603394
1685921380348786200,0.6507861328125,8.627620697021484,1.7407784461975098,-0.3526422381401062
1685921380358546400,0.66054638671875,8.311469078063965,1.8317056894302368,-0.3646063506603241
1685921380368307200,0.67030712890625,8.139185905456543,1.9680966138839722,-0.3837489187717438
1685921380378068200,0.680068115234375,8.02193832397461,2.150250196456909,-0.34307095408439636
1685921380387828500,0.689828369140625,7.964509963989258,2.178964138031006,-0.32153555750846863
1685921380397588500,0.69958837890625,8.14397144317627,2.219642162322998,-0.2952145040035248
1685921380407349500,0.709349609375,8.359326362609863,2.23639178276062,-0.26171496510505676
1685921380417110500,0.719110595703125,8.536693572998047,2.2483558654785156,-0.12741780281066895
1685921380426870500,0.72887060546875,8.768797874450684,2.289033889770508,-0.06520441919565201
1685921380436630800,0.738630859375,9.041878700256348,2.3177478313446045,0.05922235921025276
1685921380446391600,0.7483916015625,9.281160354614258,2.3656044006347656,0.1501496136188507
1685921380456152600,0.758152587890625,9.508479118347168,2.3727827072143555,0.1788634955883026
1685921380465912800,0.767912841796875,9.681061744689941,2.399103879928589,0.26500511169433594
1685921380475672800,0.7776728515625,9.884450912475586,2.470888376235962,0.31046873331069946
1685921380485433900,0.787433837890625,9.956235885620117,2.418246269226074,0.31046873331069946
1685921380495195000,0.79719482421875,10.07587718963623,2.449352979660034,0.3562314808368683
1685921380504955000,0.806954833984375,10.035199165344238,2.4924237728118896,0.3275175988674164
1685921380514715100,0.816715087890625,9.812666893005371,2.5378875732421875,0.29850462079048157
1685921380524476200,0.82647607421875,9.551849365234375,2.5713870525360107,0.2602194547653198
1685921380534237000,0.83623681640625,9.257232666015625,2.580958366394043,0.18364913761615753
1685921380543997200,0.8459970703125,8.994022369384766,2.604886531829834,0.08793623000383377
1685921380553757400,0.85575732421875,8.75922679901123,2.6312077045440674,-0.012562318705022335
1685921380563518200,0.865518310546875,8.63479995727539,2.6168506145477295,-0.0891326442360878
1685921380573279200,0.875279296875,8.630014419555664,2.6312077045440674,-0.13698910176753998
1685921380583039500,0.88503955078125,8.584549903869629,2.659921407699585,-0.1585244983434677
1685921380592799500,0.894799560546875,8.591729164123535,2.645564556121826,-0.17527425289154053
1685921380602560500,0.904560546875,8.606085777282715,2.635993242263794,-0.24975086748600006
1685921380612321500,0.914321533203125,8.598907470703125,2.6814568042755127,-0.21595224738121033
1685921380622081500,0.92408154296875,8.64197826385498,2.7152554988861084,-0.2111666053533554
1685921380631843300,0.93384326171875,8.728119850158691,2.703291416168213,-0.2063809484243393
1685921380641604400,0.943604248046875,8.88125991821289,2.720041036605835,-0.2183450609445572
1685921380651365000,0.953365234375,9.08255672454834,2.712862730026245,-0.23270200192928314
1685921380661125400,0.96312548828125,9.147162437438965,2.705684185028076,-0.2641077935695648
1685921380670885600,0.9728857421875,9.29312515258789,2.7176482677459717,-0.3047857880592346
1685921380680646400,0.982646484375,9.350552558898926,2.6985056400299072,-0.3047857880592346
1685921380690407400,0.992407470703125,9.448657989501953,2.7846474647521973,-0.2063809484243393
1685921380700167700,1.002167724609375,9.566205978393555,2.870789051055908,-0.15613168478012085
1685921380709927700,1.011927734375,9.654740333557129,2.94975209236145,-0.014955141581594944
1685921380719688700,1.021688720703125,9.805487632751465,3.04307222366333,0.10468599200248718
1685921380729449700,1.03144970703125,9.927521705627441,3.145963668823242,0.20997019112110138
1685921380739209700,1.041209716796875,9.99691390991211,3.11246395111084,0.26500511169433594
1685921380748970000,1.050969970703125,10.097711563110352,3.13639235496521,0.3200400173664093
1685921380758730800,1.060730712890625,10.200602531433105,3.1507492065429688,0.29371899366378784
1685921380768491800,1.07049169921875,10.301101684570312,3.1483564376831055,0.3080759048461914
1685921380778252000,1.080251953125,10.322636604309082,3.1555347442626953,0.267397940158844
1685921380788012300,1.09001220703125,10.29870891571045,3.1268210411071777,0.18843477964401245
1685921380797773000,1.09977294921875,10.07587718963623,3.0837502479553223,0.0975075215101242
1685921380807534000,1.1095341796875,9.647562026977539,3.0933215618133545,0.020937198773026466
1685921380817294300,1.11929443359375,9.257232666015625,2.995215654373169,0.03529413416981697
1685921380827054300,1.129054443359375,9.106484413146973,3.0933215618133545,-0.14895321428775787
1685921380836815400,1.1388154296875,9.305088996887207,3.215355396270752,-0.22791635990142822
1685921380846576400,1.148576416015625,10.080662727355957,3.1962127685546875,-0.0029910283628851175
1685921380856336400,1.15833642578125,10.913963317871094,2.995215654373169,0.26979073882102966
1685921380866096600,1.1680966796875,11.672786712646484,2.7152554988861084,0.36340993642807007
1685921380875857700,1.177857666015625,12.21386432647705,2.415853500366211,0.21236300468444824
1685921380885618400,1.187618408203125,12.520444869995117,2.2387847900390625,0.10468599200248718
1685921380895378700,1.197378662109375,12.577872276306152,2.0279171466827393,-0.07477571070194244
1685921380905139000,1.207138916015625,12.376874923706055,1.7934205532073975,-0.23030917346477509
1685921380914899700,1.216899658203125,11.919547080993652,1.7072789669036865,-0.3358924686908722
1685921380924660700,1.22666064453125,11.416754722595215,1.6809579133987427,-0.46749773621559143
1685921380934421000,1.2364208984375,11.071889877319336,1.6713865995407104,-0.5225326418876648
1685921380944181000,1.246180908203125,10.935498237609863,1.628315806388855,-0.6493522524833679
1685921380953942000,1.25594189453125,10.973783493041992,1.407876968383789,-0.6589235067367554
1685921380963703000,1.265703125,10.95703411102295,1.2164511680603027,-0.6565307378768921
1685921380973463000,1.275463134765625,10.679466247558594,1.0824531316757202,-0.6613163352012634
1685921380983223300,1.285223388671875,10.26760196685791,1.0369895696640015,-0.7139584422111511
1685921380992984300,1.294984375,9.752845764160156,0.981655478477478,-0.6708876490592957
1685921381002745000,1.3047451171875,9.125627517700195,0.9840483069419861,-0.7115656137466431
1685921381012505300,1.31450537109375,8.366504669189453,0.9840483069419861,-0.6661019921302795
1685921381022265600,1.324265625,7.605287551879883,1.017846941947937,-0.6780661344528198
1685921381032026400,1.3340263671875,6.903891563415527,1.139880895614624,-0.8506484627723694
1685921381041787400,1.343787353515625,6.212066650390625,1.297807216644287,-0.9702895879745483
1685921381051547600,1.353547607421875,5.812166213989258,1.4964114427566528,-1.0492527484893799
1685921381061307600,1.3633076171875,5.960521221160889,1.5637096166610718,-1.0636097192764282
1685921381071068700,1.373068603515625,6.3269219398498535,1.5876377820968628,-1.0803594589233398
1685921381080829700,1.38282958984375,7.090531826019287,1.4533406496047974,-0.8506484627723694
1685921381090589700,1.392589599609375,7.916653633117676,1.328913927078247,-0.5943173170089722
1685921381100350000,1.402349853515625,8.78794002532959,1.3432707786560059,-0.3358924686908722
1685921381110111000,1.412111083984375,9.671489715576172,1.3815559148788452,-0.10827522724866867
1685921381119871700,1.421871826171875,10.66989517211914,1.4222339391708374,0.10468599200248718
1685921381129632000,1.431632080078125,11.605788230895996,1.3576277494430542,0.24107688665390015
1685921381139392300,1.441392333984375,12.422338485717773,1.2092727422714233,0.29850462079048157
1685921381149153000,1.451153076171875,12.934701919555664,0.97926265001297,0.28654050827026367
1685921381158914000,1.4609140625,12.94666576385498,0.859621524810791,0.1908276081085205
1685921381168674300,1.47067431640625,12.417552947998047,0.7615157961845398,0.09272187948226929
1685921381178434300,1.480434326171875,11.385648727416992,0.7902296781539917,-0.0771685317158699
1685921381188195300,1.4901953125,10.315458297729492,0.9457631707191467,-0.19202402234077454
1685921381197956400,1.499956298828125,9.436694145202637,1.080060362815857,-0.247358039021492
1685921381207716600,1.509716552734375,8.639585494995117,1.1781660318374634,-0.3047857880592346
1685921381217476600,1.5194765625,7.923832416534424,1.297807216644287,-0.35503506660461426
1685921381227237600,1.529237548828125,7.399505138397217,1.328913927078247,-0.5105685591697693
1685921381236998700,1.53899853515625,7.073781967163086,1.379163146018982,-0.5991029739379883
1685921381246758700,1.548758544921875,6.958926677703857,1.2834502458572388,-0.7474579811096191
1685921381256519000,1.558518798828125,6.999604225158691,1.20687997341156,-0.7642077207565308
1685921381266280000,1.568280029296875,7.222136974334717,1.1518449783325195,-0.7905287742614746
1685921381276040700,1.578040771484375,7.456932544708252,1.0944172143936157,-0.7881359457969666
1685921381285801000,1.587801025390625,7.739285945892334,1.1614162921905518,-0.6014958024024963
1685921381295561200,1.597561279296875,8.01236629486084,1.1446665525436401,-0.5512465238571167
1685921381305322000,1.607322021484375,8.100900650024414,1.1901301145553589,-0.393320232629776
1685921381315083000,1.6170830078125,8.14636516571045,1.1877373456954956,-0.24017956852912903
1685921381324843300,1.62684326171875,8.182256698608398,1.1446665525436401,0.028115665540099144
1685921381334603300,1.636603271484375,8.165507316589355,1.2547364234924316,0.052043892443180084
1685921381344364300,1.6463642578125,7.849654674530029,1.2906286716461182,0.10707881301641464
1685921381354125300,1.656125244140625,7.567002296447754,1.2643076181411743,0.18843477964401245
1685921381363885300,1.66588525390625,7.631608486175537,1.3959128856658936,0.2913261651992798
1685921381373645600,1.6756455078125,7.8424763679504395,1.0058828592300415,0.6601199507713318
1685921381383406600,1.685406494140625,7.794320583343506,1.0896315574645996,0.7438687682151794
1685921381393167600,1.695167724609375,7.7201433181762695,1.2379865646362305,0.6649056077003479
1685921381402927600,1.704927734375,7.674679756164551,1.3695918321609497,0.6481558084487915
1685921381412688000,1.71468798828125,7.2676005363464355,1.407876968383789,0.8060821294784546
1685921381422448600,1.72444873046875,6.853642463684082,1.4820544719696045,0.7151548862457275
1685921381432209700,1.734209716796875,6.664309978485107,1.690529227256775,0.6433702111244202
1685921381441970000,1.743969970703125,6.63559627532959,0.9409775137901306,1.2083754539489746
1685921381451730000,1.75372998046875,7.073781967163086,1.3313066959381104,1.191625714302063
1685921381461491000,1.763490966796875,7.538288593292236,1.529910922050476,0.6912266612052917
1685921381471252000,1.773251953125,7.75842809677124,1.7742780447006226,0.38733816146850586
1685921381481012200,1.78301220703125,8.160721778869629,1.939382791519165,0.1333998590707779
1685921381490772200,1.792772216796875,8.694620132446289,1.7623138427734375,-0.16091732680797577
1685921381500533200,1.802533203125,9.273982048034668,1.5780665874481201,-0.24496522545814514
1685921381510294300,1.812294189453125,9.486943244934082,1.4365909099578857,-0.23778675496578217
1685921381520054300,1.82205419921875,9.831809043884277,1.2882359027862549,-0.0077766734175384045
1685921381529814500,1.831814453125,10.054341316223145,1.1542378664016724,0.2721835672855377
1685921381539575600,1.841575439453125,10.107282638549805,1.0992028713226318,0.377766877412796
1685921381549336600,1.851336669921875,10.169496536254883,1.1614162921905518,0.3251247704029083
1685921381559096600,1.8610966796875,10.250852584838867,1.2499507665634155,0.1788634955883026
1685921381568856800,1.87085693359375,10.48534870147705,1.407876968383789,0.15732808411121368
1685921381578617600,1.88061767578125,11.627323150634766,1.903490424156189,-0.16809579730033875
1685921381588378600,1.890378662109375,12.920345306396484,2.4278175830841064,-0.40289151668548584
1685921381598139000,1.900138916015625,14.481063842773438,2.9138598442077637,-0.498604416847229
1685921381607899000,1.90989892578125,15.857833862304688,3.088535785675049,-0.4387838542461395
1685921381617660000,1.919659912109375,16.7291202545166,2.712862730026245,0.001794616924598813
1685921381627421000,1.9294208984375,16.971094131469727,2.4924237728118896,0.08793623000383377
1685921381637181200,1.93918115234375,16.286447525024414,2.2794625759124756,-0.4052843451499939
1685921381646941200,1.948941162109375,14.974284172058105,1.9896320104599,-0.8410771489143372
1685921381656702200,1.9587021484375,13.394124031066895,1.6259230375289917,-1.3677972555160522
1685921381666463200,1.968463134765625,11.790334701538086,1.3600205183029175,-1.9806588888168335
1685921381676223200,1.97822314453125,10.549955368041992,1.1973086595535278,-2.686840772628784
1685921381685983500,1.9879833984375,9.728918075561523,1.0585249662399292,-3.25663161277771
1685921381695744500,1.99774462890625,9.386445045471191,0.9649057388305664,-3.570091485977173
1685921381705505500,2.007505615234375,9.874879837036133,0.4911268353462219,-3.7139599323272705
1685921381715265500,2.017265625,10.14317512512207,0.9577272534370422,-2.615056037902832
1685921381725025800,2.02702587890625,11.124531745910645,0.8668000102043152,-1.9013967514038086
1685921381734786600,2.03678662109375,11.237293243408203,1.3336994647979736,-1.1377872228622437
1685921381744547600,2.046547607421875,11.349756240844727,1.5490535497665405,-0.26889345049858093
1685921381754307800,2.056307861328125,11.232507705688477,1.7240287065505981,0.3969094455242157
1685921381764067800,2.06606787109375,11.021639823913574,2.001596212387085,0.6601199507713318
1685921381773828900,2.075828857421875,10.782358169555664,2.073380708694458,0.9499505758285522
1685921381783590000,2.08558984375,10.765607833862305,2.0518453121185303,1.222732424736023
1685921381793350100,2.09535009765625,10.621739387512207,1.9776679277420044,1.5245270729064941
1685921381803110100,2.105110107421875,10.236495018005371,1.7001005411148071,1.928914189338684
1685921381812871200,2.11487109375,10.095318794250488,1.836491346359253,1.5293127298355103
1685921381822632200,2.124632080078125,9.599705696105957,1.3600205183029175,1.5963118076324463
1685921381832392200,2.13439208984375,9.218947410583496,1.194915771484375,1.2179467678070068
1685921381842152400,2.14415234375,8.744869232177734,0.8093722462654114,0.638584554195404
1685921381851913500,2.15391357421875,8.330612182617188,0.5748756527900696,0.06161518394947052
1685921381861674500,2.163674560546875,7.945367813110352,0.4743770956993103,-0.40767714381217957
1685921381871434500,2.1734345703125,7.648358345031738,0.4262215197086334,-0.7211369276046753
1685921381881194800,2.18319482421875,7.567002296447754,0.4214358925819397,-0.836291491985321
1685921381890955500,2.19295556640625,7.653144359588623,0.5676971673965454,-0.8721838593482971
1685921381900716500,2.202716552734375,7.803892135620117,0.5533402562141418,-0.7498508095741272
1685921381910476800,2.212476806640625,8.053044319152832,0.5940182209014893,-0.42681974172592163
1685921381920236800,2.22223681640625,8.500801086425781,0.7663014531135559,-0.06999006122350693
1685921381929997800,2.231997802734375,8.53190803527832,0.7184450030326843,0.10468599200248718
1685921381939758800,2.2417587890625,8.807083129882812,0.1175474151968956,0.11665010452270508
1685921381949519000,2.25151904296875,8.658727645874023,0.4166502356529236,0.09511470049619675
1685921381959279000,2.261279052734375,8.481658935546875,0.6299105882644653,0.3849453330039978
1685921381969040100,2.2710400390625,8.519944190979004,0.5700899958610535,-0.010169495828449726
1685921381978801200,2.28080126953125,8.80469036102295,0.8333004713058472,-0.5512465238571167
1685921381988561200,2.29056103515625,8.945866584777832,1.0513464212417603,-0.9080761671066284
1685921381998321400,2.3003212890625,8.950652122497559,1.108774185180664,-1.1545369625091553
1685921382008082400,2.31008251953125,8.65633487701416,0.5653043389320374,-1.0707881450653076
1685921382017843200,2.31984326171875,9.5231351852417,2.0398812294006348,-1.0516455173492432
1685921382027603500,2.329603515625,9.853344917297363,2.2316062450408936,-0.3000001311302185
1685921382037363700,2.33936376953125,9.736096382141113,1.7694923877716064,0.3251247704029083
1685921382047124700,2.349124755859375,10.133604049682617,1.5948163270950317,0.6792625188827515
1685921382056885500,2.358885498046875,10.358529090881348,1.3456636667251587,0.9236295223236084
1685921382066645800,2.368645751953125,10.38485050201416,1.2667005062103271,1.0145567655563354
1685921382076406000,2.378406005859375,10.887641906738281,0.9122636318206787,0.8901300430297852
1685921382086166800,2.388166748046875,10.863714218139648,0.7615157961845398,0.9284151792526245
1685921382095927800,2.397927734375,10.49970531463623,0.7256234884262085,1.0336993932724
1685921382105688000,2.40768798828125,10.482955932617188,1.0010972023010254,0.6098706722259521
1685921382115448000,2.417447998046875,9.738489151000977,1.5131611824035645,0.4136592149734497
1685921382125209000,2.427208984375,9.393623352050781,2.2244277000427246,0.35383865237236023
1685921382134970000,2.43697021484375,9.305088996887207,2.956930637359619,0.4423730969429016
1685921382144730400,2.44673046875,9.642776489257812,3.81655216217041,0.6481558084487915
1685921382154490400,2.456490478515625,9.903594017028809,4.838586330413818,1.1988041400909424
1685921382164251400,2.46625146484375,10.535597801208496,5.5737810134887695,2.048854351043701
1685921382174012400,2.476012451171875,11.122138977050781,5.700600624084473,2.9751758575439453
1685921382183772400,2.4857724609375,11.670393943786621,5.568995475769043,3.322434186935425
1685921382193532700,2.49553271484375,12.434303283691406,5.19541597366333,3.152543783187866
1685921382203293700,2.505293701171875,13.07109260559082,4.3549370765686035,2.5995028018951416
1685921382213054500,2.515054443359375,13.360624313354492,3.1483564376831055,1.857129454612732
1685921382222814700,2.524814697265625,13.300804138183594,1.9920248985290527,1.0719845294952393
1685921382232575000,2.534574951171875,12.841082572937012,1.0226325988769531,0.25064817070961
1685921382242335700,2.544335693359375,12.364911079406738,0.3233301639556885,-0.3358924686908722
1685921382252096800,2.5540966796875,11.644073486328125,-0.5264210104942322,-0.8075776696205139
1685921382261857000,2.56385693359375,10.906785011291504,-1.1249257326126099,-1.2717852592468262
1685921382271617300,2.5736171875,10.255638122558594,-1.6157535314559937,-1.7291134595870972
1685921382281378000,2.5833779296875,9.688240051269531,-1.8936200141906738,-2.0644078254699707
1685921382291139000,2.59313916015625,9.178269386291504,-1.989332914352417,-2.2342982292175293
1685921382300899300,2.6028994140625,8.823832511901855,-2.044367790222168,-2.2821545600891113
1685921382310659300,2.612659423828125,8.53908634185791,-2.0659031867980957,-2.050050735473633
1685921382320420400,2.62242041015625,8.175078392028809,-2.0563318729400635,-1.8200407028198242
1685921382330181400,2.632181396484375,7.701000690460205,-2.0659031867980957,-1.6621143817901611
1685921382339941400,2.64194140625,7.167101860046387,-2.044367790222168,-1.5520446300506592
1685921382349701600,2.65170166015625,6.527919292449951,-1.92951238155365,-1.1066805124282837
1685921382359462700,2.661462646484375,6.2862443923950195,-1.7186448574066162,-0.8913264274597168
1685921382369223700,2.6712236328125,6.245566368103027,-1.2975081205368042,-1.2693923711776733
1685921382378983700,2.680983642578125,6.293422698974609,-0.9669994711875916,-1.4084752798080444
1685921382388744000,2.690743896484375,6.4680986404418945,-0.8832506537437439,-1.1234302520751953
1685921382398505000,2.7005048828125,6.853642463684082,-0.734895646572113,-0.7019943594932556
1685921382408265700,2.710265625,7.492825031280518,-0.42352959513664246,-0.2521436810493469
1685921382418026000,2.72002587890625,8.25404167175293,-0.2105683982372284,0.15493527054786682
1685921382427786200,2.7297861328125,9.106484413146973,-0.02841476909816265,0.4734797775745392
1685921382437547000,2.739547119140625,9.810274124145508,0.23240290582180023,0.5548357367515564
1685921382447308000,2.74930810546875,10.590633392333984,0.34725838899612427,0.47108694911003113
1685921382457068300,2.759068359375,11.388041496276855,0.4911268353462219,0.38733816146850586
1685921382466828300,2.768828369140625,12.082259178161621,0.4408775866031647,0.30568310618400574
1685921382476589300,2.77858935546875,12.594621658325195,0.3209373354911804,0.2267199456691742
1685921382486350300,2.788350341796875,12.664013862609863,0.10079765319824219,0.14297115802764893
1685921382496110300,2.7981103515625,12.3338041305542,-0.08344969153404236,0.01615155301988125
1685921382505870600,2.80787060546875,11.567502975463867,-0.14356936514377594,-0.22552353143692017
1685921382515631600,2.817631591796875,10.739287376403809,-0.05234299600124359,-0.44356951117515564
1685921382525392600,2.827392578125,9.905986785888672,0.0768694281578064,-0.5991029739379883
1685921382535152600,2.837152587890625,9.245268821716309,0.2515454888343811,-0.6565307378768921
1685921382544913000,2.846912841796875,8.594121932983398,0.33050861954689026,-0.6349952816963196
1685921382554674000,2.856673828125,8.079365730285645,0.4456632137298584,-0.6373881101608276
1685921382564434700,2.8664345703125,7.837391376495361,0.5102694034576416,-0.6852445602416992
1685921382574195000,2.87619482421875,7.840083599090576,0.8117650747299194,-0.5440680384635925
1685921382583955200,2.885955078125,8.0291166305542,1.6115660667419434,-0.2183450609445572
1685921382593716000,2.895716064453125,8.285148620605469,2.518744945526123,0.39930227398872375
1685921382603477000,2.90547705078125,8.991629600524902,3.3831520080566406,1.2299108505249023
1685921382613237200,2.9152373046875,9.666704177856445,4.077369689941406,2.2857437133789062
1685921382622997500,2.92499755859375,10.039984703063965,4.218546390533447,2.917748212814331
1685921382632758300,2.93475830078125,10.071091651916504,3.9625144004821777,2.7550361156463623
1685921382642519300,2.944519287109375,10.179067611694336,3.3592238426208496,2.0895323753356934
1685921382652279600,2.954279541015625,9.937093734741211,2.5785655975341797,1.1748759746551514
1685921382662039600,2.96403955078125,9.788738250732422,1.8939191102981567,0.42801615595817566
1685921382671800600,2.973800537109375,10.028020858764648,1.407876968383789,-0.01734796352684498
1685921382681561600,2.9835615234375,10.116853713989258,1.1853444576263428,-0.06759724020957947
1685921382691321600,2.993321533203125,10.236495018005371,1.202094316482544,-0.12502498924732208
1685921382701081900,3.003081787109375,10.217352867126465,1.4054841995239258,-0.1010967567563057
1685921382710843000,3.0128427734375,9.941879272460938,1.5227324962615967,0.006580262444913387
1685921382720604000,3.02260400390625,9.587740898132324,1.4820544719696045,-0.1178465187549591
1685921382730364000,3.032364013671875,9.108877182006836,1.328913927078247,-0.28564319014549255
1685921382740124200,3.042124267578125,8.665905952453613,1.1494522094726562,-0.39571303129196167
1685921382749885200,3.05188525390625,8.924330711364746,1.1159526109695435,-0.7450651526451111
1685921382759646200,3.061646240234375,9.728918075561523,0.9720842242240906,-0.7594220638275146
1685921382769406200,3.07140625,9.470193862915039,0.8787640929222107,-0.9128618240356445
1685921382779166500,3.08116650390625,9.295517921447754,0.8428717851638794,-0.9990034699440002
1685921382788927200,3.09092724609375,9.436694145202637,0.8117650747299194,-0.9846464991569519
1685921382798688300,3.100688232421875,9.927521705627441,0.7543373107910156,-0.9463613629341125
1685921382808448500,3.110448486328125,10.176674842834473,0.5700899958610535,-0.7689933776855469
1685921382818208800,3.120208740234375,10.293923377990723,0.28504499793052673,-0.6924230456352234
1685921382827969500,3.129969482421875,10.241280555725098,0.4262215197086334,-0.529711127281189
1685921382837730600,3.13973046875,10.1216402053833,0.737587571144104,-0.12023933976888657
1685921382847490800,3.14949072265625,9.843772888183594,1.1590235233306885,0.43998026847839355
1685921382857250800,3.159250732421875,9.396016120910645,1.4629119634628296,0.9810572862625122
1685921382867011800,3.16901171875,8.90518856048584,1.6067804098129272,1.0097711086273193
1685921382876772900,3.17877294921875,8.91954517364502,1.6211373805999756,0.6936194896697998
1685921382886532900,3.188532958984375,9.683454513549805,1.233201026916504,0.3275175988674164
1685921382896293000,3.198293212890625,10.573883056640625,0.7208378314971924,-0.11306086927652359
1685921382906054100,3.20805419921875,11.421540260314941,0.3975076675415039,-0.4938187599182129
1685921382915815200,3.217815185546875,12.345767974853516,0.3041875660419464,-0.5057829022407532
1685921382925575200,3.2275751953125,13.257733345031738,0.23001007735729218,-0.3885345757007599
1685921382935335400,3.23733544921875,14.043176651000977,-0.15553347766399384,-0.5608177781105042
1685921382945096400,3.247096435546875,14.560027122497559,-0.6484549641609192,-0.740279495716095
1685921382954857200,3.256857177734375,14.533705711364746,-1.3046865463256836,-1.0277173519134521
1685921382964617500,3.266617431640625,13.698311805725098,-1.6707884073257446,-0.9583254456520081
1685921382974377700,3.276377685546875,12.518052101135254,-1.4482558965682983,-0.22552353143692017
1685921382984138500,3.286138427734375,10.823036193847656,-0.7109674215316772,0.638584554195404
1685921382993899500,3.2958994140625,0.9305089116096497,0.8668000102043152,4.591228485107422
1685921383003659800,3.30565966796875,4.062115669250488,1.5346965789794922,1.7327027320861816
1685921383013419800,3.315419677734375,4.653441905975342,-2.24057936668396,1.2538390159606934
1685921383023180800,3.325180908203125,6.3101725578308105,-2.884547710418701,-0.3717848062515259
1685921383032941800,3.33494189453125,6.336493492126465,-2.372483730316162,-1.0253244638442993
1685921383042702000,3.3447021484375,7.205387115478516,-2.748156785964966,-0.5153541564941406
1685921383052462000,3.354462158203125,7.9621171951293945,-2.264507532119751,-0.5919244885444641
1685921383062223000,3.36422314453125,8.850153923034668,-0.9861420392990112,-1.2023934125900269
1685921383071984000,3.373984130859375,9.783952713012695,-0.31345975399017334,-1.01814603805542
1685921383081744100,3.383744140625,10.372885704040527,-0.10498509556055069,-0.8578268885612488
1685921383091504400,3.39350439453125,11.198709487915039,-0.05234299600124359,-1.0372886657714844
1685921383101265400,3.403265380859375,11.277971267700195,0.18933209776878357,-0.9128618240356445
1685921383111026400,3.4130263671875,12.14207935333252,0.7830511927604675,-0.22552353143692017
1685921383120786400,3.422786376953125,12.233006477355957,1.077667474746704,-0.13220344483852386
1685921383130546700,3.432546630859375,12.336196899414062,1.3265210390090942,-0.12502498924732208
1685921383140307700,3.4423076171875,12.309576988220215,1.7072789669036865,-0.3478565812110901
1685921383150068500,3.452068359375,12.063116073608398,2.008774518966675,-0.9655039310455322
1685921383159828700,3.461828857421875,11.840583801269531,2.073380708694458,-1.2143574953079224
1685921383169589000,3.471589111328125,11.275578498840332,1.8939191102981567,-1.2287144660949707
1685921383179349800,3.481349853515625,10.679466247558594,1.7910277843475342,-1.2693923711776733
1685921383189110800,3.49111083984375,10.169496536254883,1.4246268272399902,-1.2502498626708984
1685921383198871000,3.50087109375,9.578169822692871,1.0513464212417603,-1.0803594589233398
1685921383208631300,3.51063134765625,9.080163955688477,0.8715856671333313,-0.9200403094291687
1685921383218392000,3.52039208984375,8.440980911254883,0.8835497498512268,-0.6469594240188599
1685921383228153000,3.530153076171875,8.086544036865234,0.8835497498512268,-0.654137909412384
1685921383237913300,3.539913330078125,7.907082557678223,0.9122636318206787,-0.5584250092506409
1685921383247673300,3.54967333984375,8.081758499145508,0.6921239495277405,-0.5656034350395203
1685921383257434400,3.559434326171875,8.41705322265625,0.5772684812545776,-0.2880360186100006
1685921383267195400,3.5691953125,8.6874418258667,0.6849454641342163,-0.09631111472845078
1685921383276955400,3.578955322265625,8.732905387878418,0.7782655358314514,0.06640082597732544
1685921383286715600,3.588715576171875,8.991629600524902,0.8428717851638794,0.2554338276386261
1685921383296476700,3.5984765625,9.252447128295898,0.893121063709259,0.35862427949905396
1685921383306237700,3.60823779296875,9.587740898132324,0.6729813814163208,0.3032902777194977
1685921383315997700,3.617997802734375,9.537491798400879,0.7016952633857727,0.3849453330039978
1685921383325758000,3.627758056640625,9.22851848602295,0.771087110042572,0.2721835672855377
1685921383335519000,3.63751904296875,9.151947975158691,0.6634100675582886,0.24825534224510193
1685921383345279700,3.64727978515625,8.962915420532227,0.7040880918502808,0.23629122972488403
1685921383355040000,3.6570400390625,8.960223197937012,0.7519445419311523,0.34666016697883606
1685921383364800300,3.66680029296875,8.962915420532227,0.737587571144104,0.3442673683166504
1685921383374561000,3.67656103515625,9.025128364562988,0.8261220455169678,0.39451664686203003
1685921383384322000,3.686322021484375,9.072985649108887,0.8955138921737671,0.5380859971046448
1685921383394082300,3.696082275390625,9.077771186828613,0.9122636318206787,0.6409773826599121
1685921383403842600,3.705842529296875,8.914759635925293,0.9481559991836548,0.6984050869941711
1685921383413603300,3.715603271484375,8.97248649597168,1.0010972023010254,0.8036893010139465
1685921383423364400,3.7253642578125,8.938688278198242,1.013061285018921,0.9451649188995361
1685921383433124600,3.73512451171875,8.957830429077148,0.9409775137901306,1.0528420209884644
1685921383442884600,3.744884521484375,8.895617485046387,0.9840483069419861,1.0767701864242554
1685921383452645600,3.754645751953125,8.926724433898926,1.0609177350997925,1.1724830865859985
1685921383462406700,3.76440673828125,8.970093727111816,1.0202397108078003,1.1509476900100708
1685921383472166700,3.774166748046875,9.092127799987793,1.048953652381897,1.1653046607971191
1685921383481927000,3.783927001953125,9.32423210144043,1.013061285018921,1.1700903177261353
1685921383491688000,3.79368798828125,9.474979400634766,0.9936196208000183,1.1054840087890625
1685921383501449000,3.803448974609375,9.510871887207031,0.9505487680435181,1.1413763761520386
1685921383511209000,3.813208984375,9.604491233825684,0.9936196208000183,1.1150553226470947
1685921383520969200,3.82296923828125,9.7097749710083,1.0561320781707764,0.9834501147270203
1685921383530730200,3.832730224609375,9.903594017028809,1.0944172143936157,0.8347960114479065
1685921383540491300,3.8424912109375,10.162318229675293,1.103988528251648,0.8108677864074707
1685921383550251300,3.852251220703125,10.50927734375,1.0250253677368164,0.7103692293167114
1685921383560011500,3.862011474609375,10.454241752624512,0.6729813814163208,0.483051061630249
1685921383569772300,3.871772216796875,10.830214500427246,0.3281157910823822,0.08793623000383377
1685921383579533300,3.881533203125,11.254042625427246,0.6107679605484009,-0.09631111472845078
1685921383589293600,3.89129345703125,11.902796745300293,1.2451651096343994,-0.129810631275177
1685921383599053800,3.9010537109375,12.573086738586426,1.9920248985290527,-0.12502498924732208
1685921383608814600,3.910814697265625,13.29841136932373,2.5522444248199463,0.020937198773026466
1685921383618575600,3.92057568359375,14.095819473266602,2.925823926925659,0.22432711720466614
1685921383628335900,3.9303359375,14.014463424682617,2.5163521766662598,-0.24496522545814514
1685921383638096000,3.940095947265625,12.798011779785156,2.336890459060669,-0.024526432156562805
1685921383647857000,3.94985693359375,12.5683012008667,1.2188440561294556,-0.6014958024024963
1685921383657618000,3.959617919921875,11.852547645568848,-0.08584251254796982,-1.2191431522369385
1685921383667378200,3.969378173828125,10.846963882446289,-0.4618147611618042,-1.144965648651123
1685921383677138200,3.97913818359375,9.580562591552734,-0.20338992774486542,-0.6876373887062073
1685921383686899200,3.988899169921875,9.245268821716309,0.25393831729888916,-0.3454637825489044
1685921383696660200,3.99866015625,8.936295509338379,0.5485545992851257,-0.3454637825489044
1685921383706420200,4.008420166015625,8.740083694458008,0.5676971673965454,-0.4531407952308655
1685921383716180500,4.018180419921875,8.66351318359375,0.2706880569458008,-0.7980063557624817
1685921383725941500,4.02794140625,8.23250675201416,-0.26081767678260803,-1.0205388069152832
1685921383735702500,4.03770263671875,7.610073089599609,-0.7707880139350891,-1.1928220987319946
1685921383745462500,4.047462646484375,6.839285373687744,-1.2735798358917236,-1.547258973121643
1685921383755222800,4.057222900390625,6.049055576324463,-1.7114664316177368,-1.6310077905654907
1685921383764983800,4.06698388671875,5.32612419128418,-1.800000786781311,-1.5640087127685547
1685921383774744600,4.07674462890625,5.345266819000244,-1.8242281675338745,-1.3148560523986816
1685921383784504800,4.0865048828125,5.824130535125732,-1.8696918487548828,-1.3917254209518433
1685921383794265000,4.09626513671875,6.743572235107422,-1.689931035041809,-1.2502498626708984
1685921383804025900,4.10602587890625,8.816654205322266,-0.9000003933906555,-1.7099708318710327
1685921383813787000,4.115786865234375,9.810274124145508,-0.8306085467338562,-1.022931694984436
1685921383823547100,4.125547119140625,10.463813781738281,-1.4267204999923706,-0.8697910308837891
1685921383833307400,4.135307373046875,10.751251220703125,-1.2759727239608765,-1.0157532691955566
1685921383843068200,4.145068115234375,12.264113426208496,0.47676992416381836,-0.7378866672515869
1685921383852829200,4.1548291015625,11.670393943786621,0.924227774143219,-0.9032905697822571
1685921383862589400,4.16458935546875,10.564311981201172,0.08165507018566132,-0.03409772366285324
1685921383872349400,4.174349365234375,9.95862865447998,-0.11694920808076859,0.9475577473640442
1685921383882110500,4.1841103515625,10.119247436523438,-0.16510476171970367,1.2346965074539185
1685921383891871500,4.19387158203125,10.06152057647705,0.5581258535385132,1.0289137363433838
1685921383901631500,4.203631591796875,10.238887786865234,1.688136339187622,1.1198409795761108
1685921383911391700,4.213391845703125,9.022735595703125,1.8317056894302368,0.9403793215751648
1685921383921152800,4.22315283203125,8.512765884399414,1.8963119983673096,1.1653046607971191
1685921383930913800,4.232913818359375,8.941081047058105,2.150250196456909,0.9667003750801086
1685921383940673800,4.242673828125,8.807083129882812,2.408675193786621,1.2873386144638062
1685921383950434000,4.25243408203125,8.926724433898926,2.3871397972106934,1.1676974296569824
1685921383960195000,4.262195068359375,8.869296073913574,2.171785593032837,1.1198409795761108
1685921383969956000,4.2719560546875,8.618049621582031,1.9417755603790283,0.8925228714942932
1685921383979716000,4.281716064453125,8.402695655822754,1.5852450132369995,0.46390849351882935
1685921383989476400,4.291476318359375,8.263612747192383,1.3193426132202148,0.32991042733192444
1685921383999237000,4.301237060546875,8.199007034301758,1.6977076530456543,0.44715872406959534
1685921384008998100,4.310998046875,8.287541389465332,2.066202402114868,0.5356931686401367
1685921384018758400,4.32075830078125,8.426624298095703,1.939382791519165,0.5213362574577332
1685921384028518700,4.3305185546875,8.373682975769043,1.6378871202468872,0.34187453985214233
1685921384038279400,4.340279541015625,8.938688278198242,1.5418751239776611,-0.053240302950143814
1685921384048040400,4.35004052734375,9.22851848602295,1.7288143634796143,-0.14895321428775787
1685921384057800700,4.35980078125,9.290732383728027,2.097309112548828,-0.01734796352684498
1685921384067560700,4.369560791015625,9.535099029541016,2.3321046829223633,0.2602194547653198
1685921384077321700,4.37932177734375,9.678668022155762,2.8420751094818115,0.5931209325790405
1685921384087082800,4.389082763671875,9.556634902954102,4.297509670257568,1.4213366508483887
1685921384096843000,4.398843017578125,9.405587196350098,4.3672003746032715,0.8515457510948181
1685921384106603000,4.40860302734375,9.046664237976074,3.7109687328338623,0.46390849351882935
1685921384116364000,4.418364013671875,9.539884567260742,2.5546371936798096,0.07357929646968842
1685921384126125000,4.428125,10.339386940002441,1.4844473600387573,-0.18723836541175842
1685921384135885000,4.437885009765625,10.945070266723633,1.1207382678985596,-0.10827522724866867
1685921384145645300,4.447645263671875,11.44546890258789,1.0680961608886719,0.049651071429252625
1685921384155406300,4.45740625,11.545967102050781,1.470090389251709,0.21714866161346436
1685921384165167400,4.46716748046875,11.71585750579834,2.147857427597046,0.19561325013637543
1685921384174927400,4.47692724609375,11.376076698303223,3.129213809967041,0.3275175988674164
1685921384184687600,4.4866875,11.16042423248291,3.4836506843566895,0.9595218896865845
1685921384194448600,4.49644873046875,11.711071968078613,3.9768712520599365,0.3969094455242157
1685921384204209400,4.50620947265625,11.874083518981934,4.326223373413086,0.07118647545576096
1685921384213969700,4.5159697265625,11.589037895202637,4.139583110809326,-0.13938191533088684
1685921384223730000,4.52572998046875,10.897212982177734,2.877967357635498,-0.2880360186100006
1685921384233491000,4.535490966796875,10.107282638549805,1.963310956954956,-0.3071786165237427
1685921384243251700,4.545251708984375,10.092926025390625,1.2044870853424072,-0.40767714381217957
1685921384253012000,4.555011962890625,10.772787094116211,0.46002015471458435,-0.3071786165237427
1685921384262772200,4.564772216796875,11.60818099975586,-0.1818545162677765,-0.30239295959472656
1685921384272533000,4.574532958984375,11.98654556274414,-0.6221339106559753,-0.2760719060897827
1685921384282294000,4.5842939453125,12.300005912780762,-0.04995017126202583,-0.0771685317158699
1685921384292054300,4.59405419921875,12.498908996582031,0.7112665176391602,-0.6349952816963196
1685921384301814300,4.603814208984375,11.751749992370605,1.8915263414382935,-1.2646067142486572
1685921384311575300,4.6135751953125,10.736894607543945,1.8652052879333496,-1.6142579317092896
1685921384321336300,4.62333642578125,10.06869888305664,1.285843014717102,-1.7937196493148804
1685921384331096600,4.6330966796875,9.350552558898926,0.8117650747299194,-1.6046867370605469
1685921384340856600,4.642856689453125,8.622835159301758,-0.002093719784170389,-1.3483555316925049
1685921384350617600,4.65261767578125,8.148757934570312,-0.7564310431480408,-0.6972087025642395
1685921384360378600,4.662378662109375,7.926225185394287,-0.7420741319656372,-1.2526426315307617
1685921384370138600,4.672138671875,7.191030025482178,-2.4059832096099854,-1.3797613382339478
1685921384379899000,4.68189892578125,7.112067222595215,-1.6468602418899536,-0.9439685344696045
1685921384389660000,4.691659912109375,7.5789666175842285,-0.5144568681716919,-0.989432156085968
1685921384399421000,4.7014208984375,8.75922679901123,-0.11455638706684113,-1.0516455173492432
1685921384409181000,4.711180908203125,9.30030345916748,0.06729813665151596,-0.8434699773788452
1685921384418941200,4.720941162109375,9.374481201171875,-0.11455638706684113,-0.9607182741165161
1685921384428702200,4.7307021484375,9.22134017944336,-0.48095735907554626,-0.3239283561706543
1685921384438463000,4.740462890625,9.628418922424316,0.033798620104789734,-0.47706902027130127
1685921384448223200,4.75022314453125,10.380064964294434,1.048953652381897,-0.5991029739379883
1685921384457983500,4.7599833984375,10.873285293579102,1.4054841995239258,-0.6326025128364563
1685921384467744300,4.769744140625,10.736894607543945,1.786242127418518,-0.5847460627555847
1685921384477505300,4.77950537109375,10.473384857177734,2.049452543258667,-0.5751747488975525
1685921384487265500,4.789265625,10.145567893981934,2.20528507232666,-0.6756733059883118
1685921384497025800,4.79902587890625,9.994521141052246,2.564208507537842,-0.7666005492210388
1685921384506786600,4.80878662109375,9.616455078125,2.8277182579040527,-0.7283154129981995
1685921384516547600,4.818547607421875,9.312267303466797,3.0478577613830566,-0.7378866672515869
1685921384526307800,4.828307861328125,9.0514497756958,3.1172497272491455,-0.7307082414627075
1685921384536067800,4.83806787109375,8.620442390441895,2.8420751094818115,-0.7043871879577637
1685921384545828900,4.847828857421875,8.280363082885742,2.399103879928589,-0.5943173170089722
1685921384555590000,4.85758984375,7.5789666175842285,2.0279171466827393,-0.36221352219581604
1685921384565350100,4.86735009765625,7.698607921600342,1.6091731786727905,-0.3813561201095581
1685921384575110100,4.877110107421875,7.825427532196045,1.2882359027862549,-0.2928216755390167
1685921384584871200,4.88687109375,7.777570724487305,1.0465607643127441,-0.07477571070194244
1685921384594632200,4.896632080078125,7.852047443389893,0.9314061999320984,-0.10348957777023315
1685921384604392200,4.90639208984375,8.014759063720703,1.0034899711608887,-0.20159530639648438
1685921384614152400,4.91615234375,8.170292854309082,0.9074779748916626,-0.19920247793197632
1685921384623913500,4.92591357421875,8.263612747192383,0.6394818425178528,-0.09631111472845078
1685921384633674500,4.935674560546875,8.474480628967285,0.8859425783157349,-0.10588239878416061
1685921384643434500,4.9454345703125,8.900403022766113,1.170987606048584,-0.3287140130996704
1685921384653194800,4.95519482421875,10.7799654006958,0.9577272534370422,-1.7338991165161133
1685921384662955800,4.964955810546875,9.197412490844727,2.305783748626709,-0.5679962635040283
1685921384672716500,4.974716552734375,9.532706260681152,1.9776679277420044,-0.5344967842102051
1685921384682476800,4.984476806640625,9.791131019592285,1.9824535846710205,-0.20159530639648438
1685921384692237000,4.994237060546875,10.222138404846191,1.934597134590149,-0.08195417374372482
1685921384701998000,5.003998046875,10.382457733154297,1.4796617031097412,-0.0771685317158699
1685921384711758800,5.0137587890625,9.905986785888672,1.1925230026245117,-0.06041877344250679
1685921384721519000,5.02351904296875,9.59252643585205,1.1853444576263428,-0.3047857880592346
1685921384731279400,5.033279296875,9.340981483459473,1.348056435585022,-0.6014958024024963
1685921384741040000,5.0430400390625,9.273982048034668,1.3313066959381104,-0.7067800164222717
1685921384750801200,5.05280126953125,9.422337532043457,1.3624134063720703,-0.7713862061500549
1685921384760561400,5.0625615234375,9.736096382141113,1.5131611824035645,-1.073180913925171
1685921384770321400,5.0723212890625,9.676275253295898,1.4485549926757812,-1.054038405418396
1685921384780082400,5.08208251953125,9.776774406433105,1.352842092514038,-1.1617153882980347
1685921384789843500,5.091843505859375,10.0040922164917,1.355234980583191,-1.176072359085083
1685921384799603700,5.101603759765625,10.219745635986328,1.5442678928375244,-1.1904292106628418
1685921384809363700,5.11136376953125,10.569097518920898,1.6857435703277588,-1.3196417093276978
1685921384819124700,5.121124755859375,10.159924507141113,1.6067804098129272,-0.98703932762146
1685921384828885800,5.1308857421875,10.93310546875,1.2044870853424072,-1.211964726448059
1685921384838645800,5.140645751953125,11.354541778564453,1.1063814163208008,-1.0755738019943237
1685921384848406000,5.150406005859375,11.428719520568848,0.9122636318206787,-1.0013962984085083
1685921384858167000,5.1601669921875,11.45264720916748,0.6083751320838928,-1.0636097192764282
1685921384867928000,5.169927978515625,11.457432746887207,0.47916272282600403,-0.867398202419281
1685921384877688000,5.17968798828125,11.988938331604004,0.5318048596382141,-0.5775675773620605
1685921384887448300,5.1894482421875,12.666406631469727,0.4576273262500763,-0.2350948303937912
1685921384897209300,5.199209228515625,13.276875495910645,0.26111677289009094,0.06640082597732544
1685921384906970400,5.208970458984375,13.774881362915039,0.06969095766544342,0.32243284583091736
1685921384916730400,5.21873046875,13.892129898071289,0.057726845145225525,0.6625127792358398
1685921384926490600,5.22849072265625,13.667204856872559,0.14386846125125885,0.8826524615287781
1685921384936251400,5.23825146484375,13.217055320739746,0.1534397453069687,0.8682954907417297
1685921384946012400,5.248012451171875,12.192328453063965,-0.4139583110809326,0.8706883192062378
1685921384955772700,5.257772705078125,11.522039413452148,0.16301104426383972,0.23389841616153717
1685921384965533000,5.267532958984375,10.50927734375,0.04097708687186241,-0.6302096843719482
1685921384975293700,5.277293701171875,9.381659507751465,-0.2847459018230438,-1.293320655822754
1685921384985054700,5.2870546875,8.826225280761719,-0.3038884699344635,-1.817647933959961
1685921384994815000,5.29681494140625,8.474480628967285,-0.1698904037475586,-2.2342982292175293
1685921385004575000,5.306574951171875,8.187042236328125,-0.27038896083831787,-2.53609299659729
1685921385014336000,5.3163359375,8.227720260620117,-0.30149564146995544,-2.583949327468872
1685921385024097000,5.326096923828125,8.40748119354248,-0.4833501875400543,-2.5241286754608154
1685921385033857300,5.335857177734375,8.785547256469727,-0.6628118753433228,-2.444866418838501
1685921385043617300,5.3456171875,9.19980525970459,-0.7468597888946533,-2.131406784057617
1685921385053378300,5.35537841796875,9.614062309265137,-0.797109067440033,-1.8942182064056396
1685921385063139300,5.365139404296875,9.992128372192383,-0.8018946647644043,-1.6501502990722656
1685921385072899600,5.374899658203125,10.246066093444824,-0.6293123364448547,-1.4347963333129883
1685921385082659600,5.38465966796875,10.231709480285645,-0.3517449200153351,-1.176072359085083
1685921385092420600,5.394420654296875,9.937093734741211,-0.05712864175438881,-0.9439685344696045
1685921385102181600,5.404181640625,9.41755199432373,0.25633111596107483,-0.8961120843887329
1685921385111941600,5.413941650390625,9.022735595703125,0.5126622319221497,-0.8315058946609497
1685921385121702000,5.423701904296875,8.6874418258667,0.8452646136283875,-0.8817551732063293
1685921385131463000,5.433462890625,8.67308521270752,1.0513464212417603,-0.8027920126914978
1685921385141224000,5.443223876953125,8.462516784667969,1.163809061050415,-0.4507479667663574
1685921385150984000,5.45298388671875,8.294719696044922,1.3648061752319336,-0.08673982322216034
1685921385160744200,5.462744140625,8.23011302947998,1.1614162921905518,0.1621137410402298
1685921385170505200,5.472505126953125,8.292326927185059,0.9266205430030823,0.4016951024532318
1685921385180266000,5.482265869140625,8.505587577819824,0.7567301392555237,0.47108694911003113
1685921385190026200,5.492026123046875,8.127222061157227,1.0202397108078003,1.0265209674835205
1685921385199786500,5.501786376953125,8.187042236328125,0.9290133714675903,1.1078768968582153
1685921385209547300,5.51154736328125,8.558229446411133,0.7160521745681763,1.1581261157989502
1685921385219308300,5.521308349609375,8.507980346679688,0.6346961855888367,1.0600204467773438
1685921385229068500,5.531068603515625,8.412266731262207,0.649053156375885,1.0839486122131348
1685921385238828800,5.540828857421875,8.361719131469727,0.6418746709823608,1.196411371231079
1685921385248589600,5.550589599609375,8.397610664367676,0.5964110493659973,1.25144624710083
1685921385258350600,5.5603505859375,8.460124015808105,0.6610172390937805,1.3543375730514526
1685921385268110800,5.57011083984375,8.65633487701416,0.5676971673965454,1.5197415351867676
1685921385277871000,5.57987109375,9.022735595703125,0.38793638348579407,1.491027593612671
1685921385287632000,5.5896318359375,9.317052841186523,0.07208377867937088,1.301695466041565
1685921385297393000,5.599392822265625,9.750452995300293,0.6777670383453369,1.4694921970367432
1685921385307153200,5.609153076171875,10.035199165344238,0.7950153350830078,1.4093725681304932
1685921385316913200,5.6189130859375,10.265209197998047,0.5700899958610535,1.3471591472625732
1685921385326674200,5.628674072265625,10.083354949951172,0.2347957193851471,1.3184453248977661
1685921385336435200,5.638435302734375,9.901201248168945,0.29700911045074463,1.3040883541107178
1685921385346195500,5.648195556640625,9.867701530456543,0.7806583642959595,1.306481122970581
1685921385355955500,5.65795556640625,9.760024070739746,0.9146564602851868,1.301695466041565
1685921385365716500,5.667716552734375,9.467801094055176,0.8715856671333313,0.8419744968414307
1685921385375477500,5.6774775390625,8.982057571411133,0.857228696346283,0.5859424471855164
1685921385385237500,5.687237548828125,8.708976745605469,1.1877373456954956,0.4950151741504669
1685921385394997800,5.696997802734375,8.653942108154297,1.3217353820800781,0.16929219663143158
1685921385404758800,5.7067587890625,9.116056442260742,1.2714861631393433,-0.06759724020957947
1685921385414519800,5.716519775390625,9.348159790039062,1.084846019744873,-0.09870393574237823
1685921385424279800,5.72627978515625,9.247661590576172,0.9026923179626465,-0.01734796352684498
1685921385434040000,5.7360400390625,9.429515838623047,0.3616153299808502,-0.29042884707450867
1685921385443801000,5.745801025390625,9.419944763183594,0.4815555512905121,-0.09870393574237823
1685921385453562000,5.75556201171875,9.556634902954102,0.5509474277496338,-0.20877377688884735
1685921385463322000,5.765322021484375,9.477372169494629,0.2108674943447113,-0.37417763471603394
1685921385473082400,5.775082275390625,9.530313491821289,-0.17946170270442963,-0.43160539865493774
1685921385482843400,5.784843505859375,10.51645565032959,-0.2919243574142456,0.25064817070961
1685921385492604200,5.794604248046875,11.988938331604004,-0.29431718587875366,1.057627558708191
1685921385502364400,5.804364501953125,13.358231544494629,-0.4498506486415863,1.9504495859146118
1685921385512124700,5.814124755859375,14.057534217834473,-0.8377870321273804,2.4293131828308105
1685921385521885700,5.8238857421875,14.385350227355957,-0.797109067440033,1.8834505081176758
1685921385531646500,5.833646484375,13.032807350158691,-0.24646073579788208,1.4503495693206787
1685921385541406700,5.84340673828125,11.232507705688477,-0.24646073579788208,1.160519003868103
1685921385551167000,5.8531669921875,10.344172477722168,-0.5335994362831116,1.0217353105545044
1685921385560927700,5.862927734375,9.60209846496582,-0.8425726890563965,1.3256237506866455
1685921385570688800,5.872688720703125,9.544670104980469,-0.8593224287033081,1.6058831214904785
1685921385580449000,5.882448974609375,9.049057006835938,-0.13160525262355804,2.379063844680786
1685921385590209300,5.892209228515625,10.387243270874023,-0.4498506486415863,0.9834501147270203
1685921385599970000,5.901969970703125,10.207781791687012,0.05294119939208031,1.210768222808838
1685921385609731000,5.91173095703125,10.164710998535156,0.5126622319221497,1.3112667798995972
1685921385619491300,5.9214912109375,10.202995300292969,0.5150550603866577,0.7797610759735107
1685921385629251300,5.931251220703125,10.217352867126465,0.5006981492042542,0.48065826296806335
1685921385639012400,5.941012451171875,10.176674842834473,0.5413761138916016,0.20518454909324646
1685921385648773400,5.9507734375,9.999306678771973,0.5461617708206177,0.03529413416981697
1685921385658533600,5.96053369140625,9.764810562133789,0.5174478888511658,-0.2521436810493469
1685921385668293600,5.970293701171875,9.240483283996582,0.5916253924369812,-0.45553362369537354
1685921385678054700,5.9800546875,9.077771186828613,0.6538388133049011,-0.8913264274597168
1685921385687815700,5.989815673828125,8.704191207885742,0.8141579031944275,-1.1569297313690186
1685921385697576000,5.999575927734375,8.26121997833252,0.8333004713058472,-1.3052847385406494
1685921385707336000,6.0093359375,7.988438606262207,0.7280163168907166,-1.5185450315475464
1685921385717097000,6.019096923828125,7.313363075256348,-0.10977073758840561,-1.0205388069152832
1685921385726858000,6.02885791015625,7.258029460906982,-0.021236300468444824,-2.042872428894043
1685921385736618200,6.0386181640625,4.931009292602539,-0.7612167000770569,-2.9907290935516357
1685921385746378200,6.048378173828125,6.69780969619751,1.1614162921905518,-2.3778674602508545
1685921385756139300,6.05813916015625,8.496015548706055,4.745266437530518,-3.3379876613616943
1685921385765900300,6.067900390625,5.316552639007568,3.5697922706604004,-4.424927234649658
1685921385775660300,6.077660400390625,6.159424781799316,0.8261220455169678,-4.159024715423584
1685921385785420500,6.087420654296875,6.190531253814697,1.7024933099746704,-2.6126632690429688
1685921385795181600,6.097181640625,6.738786697387695,2.4972095489501953,-1.8391833305358887
1685921385804942600,6.106942626953125,6.949355125427246,2.188535451889038,-1.6046867370605469
1685921385814702600,6.11670263671875,7.564609527587891,1.5346965789794922,-1.5233306884765625
1685921385824462800,6.126462890625,8.37129020690918,1.4030914306640625,-1.23589289188385
1685921385834223900,6.136223876953125,9.017950057983398,1.1853444576263428,-0.7498508095741272
1685921385843985000,6.14598486328125,9.537491798400879,0.9074779748916626,-0.2521436810493469
1685921385853745000,6.155744873046875,9.934700965881348,0.7399803996086121,0.20039889216423035
1685921385863505200,6.165505126953125,10.315458297729492,0.6059823632240295,0.5811567902565002
1685921385873266200,6.17526611328125,10.636096954345703,0.6538388133049011,1.0456634759902954
1685921385883027200,6.185027099609375,10.964212417602539,0.9098708033561707,1.5197415351867676
1685921385892787200,6.194787109375,11.126924514770508,1.202094316482544,1.7015960216522217
1685921385902547500,6.20454736328125,11.083853721618652,1.5107684135437012,1.7614165544509888
1685921385912308500,6.21430859375,11.165209770202637,1.8843477964401245,1.7829519510269165
1685921385922069200,6.2240693359375,10.91157054901123,2.667099952697754,1.7614165544509888
1685921385931829500,6.23382958984375,11.05753231048584,3.282653570175171,1.7207385301589966
1685921385941589800,6.24358984375,11.136495590209961,1.8963119983673096,0.8682954907417297
1685921385951350800,6.253350830078125,11.24925708770752,1.2475578784942627,1.1318050622940063
1685921385961111600,6.263111572265625,11.129317283630371,1.633101463317871,1.4404792785644531
1685921385970871800,6.272871826171875,11.076675415039062,1.7168502807617188,1.2275179624557495
1685921385980632000,6.282632080078125,11.313863754272461,2.4445674419403076,0.9475577473640442
1685921385990393000,6.29239306640625,11.002497673034668,2.39192533493042,0.6960122585296631
1685921386000153900,6.30215380859375,10.744072914123535,1.9513468742370605,0.4184448719024658
1685921386009914000,6.3119140625,10.475777626037598,2.0542383193969727,0.3849453330039978
1685921386019674400,6.32167431640625,10.039984703063965,2.011167526245117,0.2602194547653198
1685921386029435100,6.33143505859375,9.738489151000977,1.8005990982055664,-0.12263216078281403
1685921386039196200,6.341196044921875,9.520742416381836,1.6450655460357666,-0.29042884707450867
1685921386048956400,6.350956298828125,9.501300811767578,1.3456636667251587,-0.529711127281189
1685921386058716700,6.360716552734375,9.786345481872559,1.1374880075454712,-0.7570292353630066
1685921386068477400,6.3704775390625,10.437492370605469,1.0274182558059692,-0.9702895879745483
1685921386078238500,6.380238525390625,11.59382438659668,0.768694281578064,-0.898504912853241
1685921386087998700,6.389998779296875,13.07109260559082,0.6753742098808289,-0.6086742877960205
1685921386097759000,6.399759033203125,13.944771766662598,0.5413761138916016,-0.4387838542461395
1685921386107519700,6.409519775390625,14.079069137573242,-0.05712864175438881,-0.2521436810493469
1685921386117280800,6.41928076171875,13.502099990844727,0.25633111596107483,-0.9559326171875
1685921386127041000,6.429041015625,12.482159614562988,0.4743770956993103,-1.3387842178344727
1685921386136801300,6.43880126953125,11.634501457214355,0.3233301639556885,-1.4635101556777954
1685921386146562000,6.44856201171875,10.856535911560059,-0.3732803463935852,-1.456331729888916
1685921386156323000,6.458322998046875,9.87966537475586,-0.3517449200153351,-1.5281163454055786
1685921386166083300,6.468083251953125,9.295517921447754,0.19651055335998535,-2.050050735473633
1685921386175843600,6.477843505859375,8.620442390441895,0.5676971673965454,-2.4858436584472656
1685921386185604400,6.487604248046875,7.856832981109619,0.7806583642959595,-2.7610182762145996
1685921386195365400,6.497365478515625,7.363612651824951,0.8500502705574036,-2.890230655670166
1685921386205125600,6.507125732421875,4.864010334014893,-0.6771687865257263,-2.50498628616333
1685921386214886000,6.516885986328125,7.99083137512207,0.024227328598499298,-3.8336009979248047
1685921386224646700,6.526646728515625,8.366504669189453,1.261914849281311,-4.166502475738525
1685921386234407700,6.53640771484375,8.941081047058105,1.817348837852478,-5.327619552612305
1685921386244168000,6.54616796875,8.869296073913574,2.20528507232666,-5.911767482757568
1685921386253928200,6.55592822265625,8.491230010986328,1.8340985774993896,-5.406582832336426
1685921386263689000,6.56568896484375,8.182256698608398,1.2595219612121582,-4.6163530349731445
1685921386273450000,6.575449951171875,8.390432357788086,0.8309076428413391,-4.267001152038574
1685921386283210200,6.585210205078125,8.859724998474121,0.7543373107910156,-4.154239177703857
1685921386292970200,6.59497021484375,9.278767585754395,1.1255239248275757,-4.003491401672363
1685921386302731300,6.604731201171875,9.43190860748291,1.5155540704727173,-3.883850336074829
1685921386312492300,6.6144921875,9.628418922424316,1.6067804098129272,-3.531806230545044
1685921386322252500,6.62425244140625,10.078269958496094,1.293021559715271,-2.8064818382263184
1685921386332012500,6.634012451171875,10.023235321044922,1.3360923528671265,-1.9926230907440186
1685921386341773600,6.643773681640625,9.159127235412598,1.2738789319992065,-1.2574282884597778
1685921386351534600,6.65353466796875,8.697012901306152,1.2786645889282227,-1.0157532691955566
1685921386361294800,6.663294921875,7.598109245300293,1.3432707786560059,-0.8626125454902649
1685921386371054800,6.673054931640625,7.645965576171875,0.859621524810791,-0.7953144311904907
1685921386380816000,6.68281591796875,9.738489151000977,0.6586244106292725,-0.8027920126914978
1685921386390577000,6.692576904296875,9.120841979980469,0.46480581164360046,-0.9080761671066284
1685921386400337200,6.702337158203125,9.202198028564453,0.5054838061332703,-1.413260817527771
1685921386410097200,6.71209716796875,9.515657424926758,0.5581258535385132,-1.841576099395752
1685921386419858200,6.721858154296875,9.427123069763184,0.9050851464271545,-1.5448660850524902
1685921386429619200,6.731619140625,9.139984130859375,0.857228696346283,-0.9104689955711365
1685921386439379200,6.741379150390625,8.711369514465332,0.7734799385070801,-0.3287140130996704
1685921386449139500,6.751139404296875,8.280363082885742,1.0824531316757202,-0.07477571070194244
1685921386458900500,6.760900390625,7.919046401977539,1.3743774890899658,-0.07956135272979736
1685921386468661500,6.77066162109375,7.576573848724365,1.5490535497665405,0.01375873014330864
1685921386478421500,6.78042138671875,7.502396106719971,1.7359927892684937,0.20997019112110138
1685921386488181800,6.790181640625,7.8903326988220215,1.994417667388916,0.5021936297416687
1685921386497942800,6.79994287109375,8.237292289733887,2.1382861137390137,0.791725218296051
1685921386507703800,6.809703857421875,8.467302322387695,2.3177478313446045,0.9906286001205444
1685921386517463800,6.8194638671875,8.503194808959961,2.573779821395874,1.0504491329193115
1685921386527224000,6.82922412109375,8.66351318359375,2.712862730026245,0.9427721500396729
1685921386536985000,6.838985107421875,8.953044891357422,2.916252613067627,0.9188438653945923
1685921386546746000,6.84874609375,9.273982048034668,2.988037347793579,0.9332008361816406
1685921386556506000,6.858506103515625,9.211769104003906,3.1100711822509766,0.8877372145652771
1685921386566266400,6.868266357421875,9.254839897155762,3.13639235496521,0.7055835723876953
1685921386576027400,6.87802734375,9.226125717163086,3.285046339035034,0.42801615595817566
1685921386585788400,6.887788330078125,9.017950057983398,3.4764721393585205,0.21954147517681122
1685921386595548400,6.89754833984375,9.063413619995117,3.7109687328338623,-0.07956135272979736
1685921386605308700,6.90730859375,9.156734466552734,3.814159393310547,-0.3358924686908722
1685921386615069700,6.917069580078125,9.156734466552734,3.9218363761901855,-0.46749773621559143
1685921386624830700,6.926830810546875,9.721739768981934,4.051048755645752,-0.4339981973171234
1685921386634590700,6.9365908203125,10.341779708862305,4.024727821350098,-0.6349952816963196
1685921386644351000,6.94635107421875,10.739287376403809,3.4357941150665283,-0.7666005492210388
1685921386654112000,6.956112060546875,11.071889877319336,2.669492721557617,-0.5249254703521729
1685921386663873000,6.965873046875,10.672287940979004,2.6575286388397217,-1.0157532691955566
1685921386673633000,6.975633056640625,9.657133102416992,2.705684185028076,-1.2741780281066895
1685921386683393300,6.985393310546875,8.852546691894531,2.645564556121826,-0.7450651526451111
1685921386693154300,6.995154296875,8.469695091247559,3.3903305530548096,-0.6972087025642395
1685921386702915300,7.004915283203125,9.247661590576172,4.180261135101318,-0.867398202419281
1685921386712675300,7.01467529296875,10.526026725769043,4.520340919494629,-1.5017952919006348
1685921386722435600,7.024435546875,12.96341609954834,4.52991247177124,-2.2438695430755615
1685921386732196600,7.034196533203125,14.220246315002441,3.0717861652374268,-2.488236427307129
1685921386741957600,7.04395751953125,15.105889320373535,1.2188440561294556,-2.004587173461914
1685921386751717600,7.053717529296875,15.879369735717773,-0.2967100143432617,-1.8343976736068726
1685921386761478000,7.063477783203125,15.967904090881348,-0.8210372924804688,-2.097907304763794
1685921386771239000,7.073239013671875,15.242579460144043,-1.0004990100860596,-2.521735906600952
1685921386781000000,7.083,12.659228324890137,-0.7899305820465088,-2.897409200668335
1685921386790760000,7.092760009765625,9.642776489257812,-0.6101697683334351,-3.345165967941284
1685921386800520200,7.102520263671875,7.042675018310547,-0.2967100143432617,-3.139383316040039
1685921386810281200,7.11228125,5.0772705078125,0.05054837837815285,-2.7442684173583984
1685921386820042200,7.122042236328125,4.186542510986328,0.7184450030326843,-2.6509482860565186
1685921386829802200,7.13180224609375,4.1985063552856445,1.2762718200683594,-2.428116798400879
1685921386839562500,7.1415625,5.036592483520508,1.657029628753662,-1.999801516532898
1685921386849323500,7.151323486328125,6.080162525177002,2.025524377822876,-1.633400559425354
1685921386859084500,7.16108447265625,6.985247611999512,2.226820468902588,-1.4419747591018677
1685921386868844500,7.170844482421875,7.7823567390441895,2.171785593032837,-1.394118309020996
1685921386878604800,7.180604736328125,8.747262001037598,2.0542383193969727,-1.5017952919006348
1685921386888365800,7.19036572265625,9.685847282409668,1.8245272636413574,-1.6166508197784424
1685921386898126600,7.200126708984375,10.60977554321289,1.6139588356018066,-1.7985053062438965
1685921386907886800,7.209886962890625,11.266007423400879,1.501197099685669,-1.937588095664978
1685921386917647000,7.219647216796875,11.4981107711792,1.4940186738967896,-2.0213370323181152
1685921386927408000,7.229408203125,13.224233627319336,1.072881817817688,-2.217548370361328
1685921386937169000,7.2391689453125,10.370492935180664,1.2499507665634155,-2.193620204925537
1685921386946929200,7.24892919921875,9.616455078125,1.2595219612121582,-2.631805896759033
1685921386956689400,7.258689453125,8.65633487701416,1.7647067308425903,-2.7993032932281494
1685921386966450400,7.268450439453125,7.705786228179932,1.6737794876098633,-2.897409200668335
1685921386976211500,7.27821142578125,7.377969741821289,1.6737794876098633,-2.8639094829559326
1685921386985971500,7.287971435546875,7.114459991455078,1.592423439025879,-2.6676981449127197
1685921386995731700,7.297731689453125,6.985247611999512,1.501197099685669,-2.41375994682312
1685921387005492700,7.30749267578125,6.870391845703125,1.2547364234924316,-2.45204496383667
1685921387015253800,7.317253662109375,7.222136974334717,1.434198021888733,-2.7299115657806396
1685921387025013800,7.327013671875,7.322934627532959,1.3935201168060303,-2.732304334640503
1685921387034774000,7.33677392578125,7.497610569000244,1.2116655111312866,-2.38983154296875
1685921387044535000,7.34653515625,7.748857021331787,1.1255239248275757,-2.131406784057617
1685921387054295800,7.3562958984375,8.199007034301758,1.2140583992004395,-1.9902302026748657
1685921387064056000,7.36605615234375,8.560622215270996,1.3336994647979736,-1.841576099395752
1685921387073816300,7.37581640625,8.953044891357422,1.561316728591919,-1.6357933282852173
1685921387083577300,7.385577392578125,9.269196510314941,1.8221344947814941,-1.3821542263031006
1685921387093338000,7.395338134765625,9.587740898132324,2.0757737159729004,-1.1306086778640747
1685921387103098400,7.405098388671875,9.803094863891602,2.3297119140625,-0.9080761671066284
1685921387112858600,7.414858642578125,9.87966537475586,2.557030200958252,-0.740279495716095
1685921387122619600,7.42461962890625,9.915557861328125,2.7415764331817627,-0.5440680384635925
1685921387132380400,7.43438037109375,9.977771759033203,2.8492536544799805,-0.4124628007411957
1685921387142140700,7.444140625,9.961021423339844,2.8971099853515625,-0.271286278963089
1685921387151901000,7.45390087890625,10.001699447631836,2.8420751094818115,-0.20398813486099243
1685921387161661700,7.46366162109375,10.152746200561523,2.9306094646453857,-0.10827522724866867
1685921387171422700,7.473422607421875,10.109675407409668,2.98085880279541,-0.01734796352684498
1685921387181183000,7.483182861328125,9.824630737304688,3.0622148513793945,0.01375873014330864
1685921387190943200,7.492943115234375,9.412766456604004,3.177070379257202,-0.019740786403417587
1685921387200704000,7.5027041015625,8.909974098205566,3.2946176528930664,-0.16091732680797577
1685921387210465000,7.512465087890625,8.613264083862305,3.3352956771850586,-0.4794618487358093
1685921387220225300,7.522225341796875,8.429017066955566,3.193819999694824,-0.8243274092674255
1685921387229985500,7.531985595703125,8.337790489196777,3.1339993476867676,-1.085145115852356
1685921387239746600,7.54174658203125,8.534300804138184,3.122035264968872,-1.1976077556610107
1685921387249507300,7.55150732421875,8.857332229614258,3.232105255126953,-1.2406785488128662
1685921387259267600,7.561267578125,9.448657989501953,3.3257243633270264,-1.1258230209350586
1685921387269027800,7.57102783203125,10.054341316223145,3.3879377841949463,-0.8315058946609497
1685921387278788900,7.580788818359375,10.020842552185059,3.316153049468994,-0.5081757307052612
1685921387288549600,7.590549560546875,9.917950630187988,3.4621152877807617,-0.45553362369537354
1685921387298310000,7.600309814453125,10.124032974243164,3.6511483192443848,-0.45553362369537354
1685921387308070100,7.610070068359375,10.696216583251953,3.7851462364196777,-0.40767714381217957
1685921387317831000,7.619830810546875,11.634501457214355,3.7827534675598145,-0.3071786165237427
1685921387327592000,7.629592041015625,12.869796752929688,3.574577808380127,-0.271286278963089
1685921387337352200,7.639352294921875,13.98544979095459,3.2368907928466797,-0.32153555750846863
1685921387347112400,7.649112548828125,14.864213943481445,2.6790640354156494,-0.4411766827106476
1685921387356873200,7.658873291015625,15.276079177856445,2.025524377822876,-0.7929216027259827
1685921387366634200,7.66863427734375,15.117853164672852,1.3887344598770142,-1.085145115852356
1685921387376394500,7.67839453125,14.277673721313477,0.8333004713058472,-1.3845469951629639
1685921387386154800,7.68815478515625,13.068699836730957,0.4094717800617218,-1.3677972555160522
1685921387395915500,7.69791552734375,11.534003257751465,0.19651055335998535,-1.2861422300338745
1685921387405676500,7.707676513671875,9.915557861328125,-0.009272187948226929,-1.171286702156067
1685921387415436800,7.717436767578125,8.43140983581543,-0.05952146276831627,-1.171286702156067
1685921387425197000,7.727197021484375,7.114459991455078,-0.04755735024809837,-1.171286702156067
1685921387434958000,7.7369580078125,6.185745716094971,0.07447660714387894,-1.29810631275177
1685921387444718800,7.74671875,5.60399055480957,0.3448655605316162,-1.5017952919006348
1685921387454479000,7.75647900390625,5.527121067047119,0.5605186820030212,-1.6453646421432495
1685921387464239400,7.7662392578125,5.960521221160889,0.7423732280731201,-1.6860426664352417
1685921387474000100,7.776000244140625,6.760322093963623,0.8739784955978394,-1.5496517419815063
1685921387483761200,7.78576123046875,7.638787269592285,0.7639086246490479,-1.4012967348098755
1685921387493521400,7.795521484375,8.292326927185059,0.768694281578064,-1.2143574953079224
1685921387503281700,7.80528173828125,8.735298156738281,0.9002995491027832,-1.0348957777023315
1685921387513042400,7.81504248046875,9.017950057983398,1.1063814163208008,-0.9702895879745483
1685921387522803500,7.824803466796875,9.302696228027344,1.202094316482544,-0.8913264274597168
1685921387532563700,7.834563720703125,9.647562026977539,1.2643076181411743,-0.8578268885612488
1685921387542324000,7.844323974609375,10.001699447631836,1.2906286716461182,-0.8530412912368774
1685921387552084700,7.854084716796875,10.37767219543457,1.3432707786560059,-0.8003991842269897
1685921387561845800,7.863845703125,10.736894607543945,1.3217353820800781,-0.8099704384803772
1685921387571606000,7.87360595703125,11.000104904174805,1.2786645889282227,-0.8267202377319336
1685921387581366300,7.8833662109375,11.119746208190918,1.2116655111312866,-0.7689933776855469
1685921387591127000,7.893126953125,10.827821731567383,1.2355937957763672,-0.6589235067367554
1685921387600888000,7.90288818359375,10.310672760009766,1.3193426132202148,-0.6445665955543518
1685921387610648300,7.9126484375,9.559027671813965,1.4820544719696045,-0.740279495716095
1685921387620408600,7.92240869140625,8.814261436462402,1.5828521251678467,-0.8386843204498291
1685921387630169300,7.93216943359375,8.189435958862305,1.6402798891067505,-1.042074203491211
1685921387639930400,7.941930419921875,7.631608486175537,1.719243049621582,-1.1904292106628418
1685921387649690600,7.951690673828125,7.404290676116943,1.8436698913574219,-1.2741780281066895
1685921387659451000,7.961450927734375,7.322934627532959,1.8915263414382935,-1.333998680114746
1685921387669211600,7.971211669921875,7.509574890136719,1.867598056793213,-1.32921302318573
1685921387678972700,7.98097265625,7.732107162475586,1.836491346359253,-1.333998680114746
1685921387688733000,7.99073291015625,8.009973526000977,1.683350682258606,-1.3316057920455933
1685921387698493200,8.0004931640625,8.249256134033203,1.561316728591919,-1.3917254209518433
1685921387708254000,8.01025390625,8.505587577819824,1.4533406496047974,-1.413260817527771
1685921387718015000,8.020014892578125,8.909974098205566,1.3193426132202148,-1.4874383211135864
1685921387727775200,8.029775146484376,9.352945327758789,1.1494522094726562,-1.5448660850524902
1685921387737535500,8.039535400390625,9.597312927246094,1.0106685161590576,-1.6094722747802734
1685921387747296300,8.049296142578125,9.783952713012695,0.8668000102043152,-1.6764713525772095
1685921387757057300,8.059057373046874,10.018449783325195,0.859621524810791,-1.6716856956481934
1685921387766817500,8.068817626953125,10.186245918273926,0.9625129103660583,-1.5329020023345947
1685921387776577800,8.078577880859376,10.313065528869629,1.072881817817688,-1.42043936252594
1685921387786338600,8.088338623046875,10.461421012878418,1.1255239248275757,-1.2263215780258179
1685921387796099600,8.098099609375,10.461421012878418,1.2379865646362305,-1.0875378847122192
1685921387805859800,8.10785986328125,10.372885704040527,1.4174482822418213,-0.9152546525001526
1685921387815620000,8.1176201171875,10.17428207397461,1.4916257858276367,-0.8195417523384094
1685921387825380900,8.127380859375,9.84855842590332,1.5490535497665405,-0.8267202377319336
1685921387835142000,8.137141845703125,9.535099029541016,1.6402798891067505,-0.8817551732063293
1685921387844902100,8.146902099609376,9.290732383728027,1.695314884185791,-0.898504912853241
1685921387854662400,8.156662353515625,9.135198593139648,1.7312071323394775,-0.9990034699440002
1685921387864423200,8.166423095703125,9.022735595703125,1.786242127418518,-1.058824062347412
1685921387874184200,8.17618408203125,9.094520568847656,1.8819550275802612,-1.0803594589233398
1685921387883944400,8.1859443359375,9.264410972595215,1.8604196310043335,-1.0803594589233398
1685921387893704700,8.19570458984375,9.33141040802002,1.848455548286438,-1.0612168312072754
1685921387903465500,8.205465576171875,9.209376335144043,1.8293129205703735,-1.0348957777023315
1685921387913226500,8.2152265625,8.950652122497559,1.8699909448623657,-1.0085747241973877
1685921387922986800,8.22498681640625,8.522336959838867,1.8747764825820923,-0.8961120843887329
1685921387932747000,8.2347470703125,7.99800968170166,1.848455548286438,-0.898504912853241
1685921387942507800,8.2445078125,7.772785186767578,2.0398812294006348,-0.9439685344696045
1685921387952268800,8.254268798828125,7.976474285125732,2.439781904220581,-0.7618148922920227
1685921387962029000,8.264029052734376,8.725727081298828,2.844467878341675,-0.4794618487358093
1685921387971789300,8.273789306640625,9.901201248168945,2.9449665546417236,-0.09631111472845078
1685921387981550000,8.283550048828126,11.203495025634766,2.5283162593841553,0.1453639715909958
1685921387991311000,8.29331103515625,12.460623741149902,1.8604196310043335,0.16689938306808472
1685921388001071400,8.3030712890625,13.51884937286377,1.077667474746704,-0.019740786403417587
1685921388010831600,8.31283154296875,13.978271484375,0.40229329466819763,-0.39092740416526794
1685921388020592400,8.32259228515625,13.935200691223145,-0.1217348501086235,-0.9032905697822571
1685921388030353400,8.332353515625,13.439587593078613,-0.41874396800994873,-1.2789636850357056
1685921388040113700,8.34211376953125,12.625728607177734,-0.5718846321105957,-1.511366605758667
1685921388049874000,8.3518740234375,11.46939754486084,-0.5431707501411438,-1.480259895324707
1685921388059634700,8.361634765625,10.241280555725098,-0.4618147611618042,-1.4156537055969238
1685921388069395700,8.371395751953125,9.142376899719238,-0.27038896083831787,-1.290927767753601
1685921388079156000,8.381156005859374,8.187042236328125,-0.016450656577944756,-1.077966570854187
1685921388088916200,8.390916259765625,7.677072525024414,0.25633111596107483,-0.8697910308837891
1685921388098677000,8.400677001953126,7.4138617515563965,0.584446907043457,-0.618245542049408
1685921388108438000,8.41043798828125,7.428218841552734,0.7399803996086121,-0.3981058597564697
1685921388118198300,8.4201982421875,7.904689788818359,0.771087110042572,-0.14656038582324982
1685921388127958500,8.42995849609375,8.67308521270752,0.7040880918502808,0.1381855010986328
1685921388137719300,8.43971923828125,9.350552558898926,0.5796613097190857,0.3128615617752075
1685921388147480300,8.449480224609376,9.745667457580566,0.617946445941925,0.3442673683166504
1685921388157240600,8.459240478515625,9.9442720413208,0.6945167779922485,0.2961117923259735
1685921388167000800,8.469000732421875,9.915557861328125,0.8500502705574036,0.1621137410402298
1685921388176761600,8.47876171875,9.838987350463867,0.9433703422546387,0.030508488416671753
1685921388186522600,8.488522705078125,9.570991516113281,1.041775107383728,-0.09152546525001526
1685921388196283000,8.498282958984374,9.259625434875488,1.0824531316757202,-0.3693920075893402
1685921388206043100,8.508043212890625,8.8740816116333,1.2212368249893188,-0.6038886308670044
1685921388215804000,8.517803955078126,8.627620697021484,1.348056435585022,-0.742672324180603
1685921388225565000,8.52756494140625,8.493622779846191,1.4796617031097412,-0.8841479420661926
1685921388235325200,8.5373251953125,8.450551986694336,1.683350682258606,-0.9702895879745483
1685921388245085400,8.54708544921875,8.467302322387695,1.7694923877716064,-1.2406785488128662
1685921388254846200,8.55684619140625,8.53190803527832,1.6187444925308228,-1.4419747591018677
1685921388264607200,8.566607177734374,8.498408317565918,1.5780665874481201,-1.456331729888916
1685921388274367500,8.576367431640625,8.790332794189453,1.4485549926757812,-1.5041881799697876
1685921388284127700,8.586127685546876,9.252447128295898,1.2834502458572388,-1.5376876592636108
1685921388293888500,8.595888427734375,9.870094299316406,1.3504493236541748,-1.413260817527771
1685921388303649500,8.6056494140625,9.987342834472656,1.4413765668869019,-0.9822536706924438
1685921388313409800,8.615409912109374,10.784750938415527,1.8556339740753174,-0.7259225845336914
1685921388323170000,8.625170166015625,11.344970703125,1.8580267429351807,-0.7019943594932556
1685921388332930800,8.634930908203126,10.590633392333984,1.9537396430969238,-0.9200403094291687
1685921388342691800,8.64469189453125,10.322636604309082,2.782254457473755,-1.0372886657714844
1685921388352452000,8.6544521484375,10.720144271850586,2.743969440460205,-1.4946168661117554
1685921388362212400,8.66421240234375,9.815059661865234,2.011167526245117,-1.3797613382339478
1685921388371973000,8.67397314453125,8.613264083862305,2.0781664848327637,-1.6908283233642578
1685921388381734100,8.683734130859374,7.569395542144775,2.29860520362854,-2.9500513076782227
1685921388391494400,8.693494384765625,6.781857490539551,1.5780665874481201,-1.8248263597488403
1685921388401254700,8.703254638671876,7.502396106719971,1.7479569911956787,-1.2885349988937378
1685921388411015400,8.713015380859375,7.983652591705322,1.95852530002594,-0.8721838593482971
1685921388420776400,8.7227763671875,7.387540817260742,2.181356906890869,-0.8602197170257568
1685921388430536700,8.73253662109375,8.39282512664795,2.2531416416168213,-1.0707881450653076
1685921388440297000,8.742296875,8.933902740478516,1.2403794527053833,0.27696922421455383
1685921388450057700,8.7520576171875,9.283554077148438,0.263509601354599,-0.41485562920570374
1685921388459818800,8.76181884765625,8.277970314025879,0.06011966988444328,-1.4946168661117554
1685921388469579000,8.7715791015625,6.7316083908081055,1.410269856452942,-3.2829527854919434
1685921388479339300,8.78133935546875,7.933403491973877,2.3799612522125244,-3.2829527854919434
1685921388489100000,8.79110009765625,9.084949493408203,1.5876377820968628,-1.4276177883148193
1685921388498861000,8.800861083984374,9.037093162536621,0.6753742098808289,-0.04366901144385338
1685921388508621300,8.810621337890625,8.615656852722168,0.6370890140533447,0.6720840334892273
1685921388518381600,8.820381591796876,8.450551986694336,1.592423439025879,0.48065826296806335
1685921388528142300,8.830142333984375,8.318648338317871,2.487638235092163,0.15493527054786682
1685921388537903400,8.8399033203125,7.301399230957031,2.478066921234131,-0.4627120792865753
1685921388547663600,8.84966357421875,7.468896865844727,1.994417667388916,-0.9655039310455322
1685921388557423900,8.859423828125,8.914759635925293,1.4198411703109741,-0.9655039310455322
1685921388567184600,8.8691845703125,10.799107551574707,0.8644071817398071,-0.4627120792865753
1685921388576945700,8.878945556640625,12.649657249450684,0.7926225066184998,0.08793623000383377
1685921388586706000,8.888705810546876,13.87059497833252,1.013061285018921,0.361017107963562
1685921388596466200,8.898466064453125,14.100605010986328,1.1925230026245117,0.6505486369132996
1685921388606227200,8.908227294921875,13.523634910583496,1.2499507665634155,1.1772687435150146
1685921388615988000,8.917988037109374,11.86451244354248,1.1422736644744873,2.15653133392334
1685921388625748200,8.927748291015625,10.296316146850586,1.084846019744873,1.9504495859146118
1685921388635508500,8.937508544921876,8.419445991516113,1.077667474746704,1.4117653369903564
1685921388645269200,8.947269287109375,6.815357208251953,1.3815559148788452,0.8347960114479065
1685921388655030300,8.9570302734375,5.934200286865234,1.324128270149231,-0.27846473455429077
1685921388664790500,8.96679052734375,5.531907081604004,1.3719847202301025,-0.8793623447418213
1685921388674550800,8.97655078125,5.366802215576172,1.2164511680603027,1.4575281143188477
1685921388684311600,8.9863115234375,6.994818687438965,1.4294124841690063,3.0493533611297607
1685921388694072600,8.996072509765625,8.177471160888672,2.0614166259765625,3.6287155151367188
1685921388703832800,9.005832763671876,7.861618995666504,2.5594229698181152,3.763012647628784
1685921388713593000,9.015593017578125,7.1024956703186035,2.7152554988861084,3.5258240699768066
1685921388723353900,9.025353759765625,6.5614190101623535,2.8396823406219482,3.174079179763794
1685921388733115000,9.035114990234375,6.592525482177734,2.6168506145477295,2.93210506439209
1685921388742875100,9.044875244140625,7.322934627532959,2.3823540210723877,2.8196423053741455
1685921388752635400,9.054635498046874,8.630014419555664,2.226820468902588,2.407777786254883
1685921388762396400,9.064396484375,9.515657424926758,2.336890459060669,2.431705951690674
1685921388772157200,9.0741572265625,10.238887786865234,2.5139594078063965,2.235494613647461
1685921388781917400,9.08391748046875,9.819845199584961,2.157428741455078,2.5082762241363525
1685921388791677700,9.093677734375,8.864510536193848,1.7670994997024536,2.3503501415252686
1685921388801438500,9.1034384765625,7.837391376495361,1.4653047323226929,2.4388844966888428
1685921388811199500,9.113199462890625,6.417849540710449,1.7982062101364136,1.65373957157135
1685921388820959700,9.122959716796874,4.586442947387695,-1.4386845827102661,0.724726140499115
1685921388830720000,9.132719970703125,6.5303120613098145,-1.0172487497329712,-1.5999010801315308
1685921388840480800,9.142480712890626,7.16949462890625,-1.1201400756835938,-0.44356951117515564
1685921388850241800,9.15224169921875,6.789036273956299,-2.192722797393799,-0.22552353143692017
1685921388860002000,9.162001953125,6.796214580535889,-3.5982069969177246,-0.7498508095741272
1685921388869762300,9.17176220703125,7.82064151763916,-0.976570725440979,-0.5512465238571167
1685921388879523000,9.181523193359375,8.775976181030273,1.108774185180664,-0.865005373954773
1685921388889284000,9.1912841796875,11.191530227661133,3.9122650623321533,0.16929219663143158
1685921388899044400,9.20104443359375,11.268400192260742,5.9183478355407715,0.8901300430297852
1685921388908804600,9.2108046875,8.273183822631836,4.022335052490234,2.0006988048553467
1685921388918565600,9.220565673828125,5.910272121429443,0.45284169912338257,0.5524429082870483
1685921388928326400,9.230326416015625,4.679762840270996,-2.20947265625,-1.6405789852142334
1685921388938086700,9.240086669921874,4.524229526519775,-3.868596076965332,-2.8136603832244873
1685921388947847000,9.249846923828125,4.655834674835205,-4.800002098083496,-2.9165515899658203
1685921388957607700,9.259607666015626,4.964509010314941,-4.065106391906738,-2.8088746070861816
1685921388967368700,9.26936865234375,5.718846321105957,-2.779263496398926,-2.3635106086730957
1685921388977129000,9.27912890625,5.886343479156494,-1.8625133037567139,-1.7410775423049927
1685921388986889200,9.28888916015625,5.5845489501953125,-1.6755740642547607,-2.0572292804718018
1685921388996650000,9.29864990234375,5.953342914581299,-2.336292266845703,-2.615056037902832
1685921389006411000,9.308410888671874,6.8033928871154785,-3.1265218257904053,-2.622234582901001
1685921389016171300,9.318171142578125,7.81346321105957,-2.9398818016052246,-2.54327130317688
1685921389025931500,9.327931640625,8.833403587341309,-2.319542407989502,-2.3539392948150635
1685921389035692500,9.337692626953125,9.652347564697266,-1.532004714012146,-1.8966110944747925
1685921389045453300,9.347453369140625,10.437492370605469,-0.8162516355514526,-1.1880364418029785
1685921389055213600,9.357213623046874,10.72253704071045,-0.13160525262355804,-0.8482556343078613
1685921389064973800,9.366973876953125,10.643275260925293,0.8093722462654114,-0.7354938387870789
1685921389074734800,9.37673486328125,9.482157707214355,0.6945167779922485,-1.516152262687683
1685921389084495600,9.38649560546875,9.494122505187988,1.1925230026245117,-2.4807589054107666
1685921389094255900,9.396255859375,9.41037368774414,1.592423439025879,-3.3068809509277344
1685921389104016100,9.40601611328125,9.84855842590332,1.3743774890899658,-3.407379388809204
1685921389113777200,9.415777099609375,11.699108123779297,0.9194421172142029,-2.983550786972046
1685921389123538000,9.425537841796874,13.942378997802734,0.7615157961845398,-2.3467607498168945
1685921389133298200,9.435298095703125,15.455540657043457,0.5413761138916016,-1.357926845550537
1685921389143058400,9.445058349609376,16.96870231628418,0.582054078578949,-0.16331014037132263
1685921389152819500,9.4548193359375,17.921344757080078,0.8476574420928955,0.6505486369132996
1685921389162580500,9.46458056640625,17.353946685791016,0.7639086246490479,1.1389836072921753
1685921389172340500,9.474340576171874,15.896119117736816,2.056631088256836,1.3663017749786377
1685921389182100700,9.484100830078125,13.274482727050781,3.1172497272491455,1.3830515146255493
1685921389191861800,9.49386181640625,11.091032028198242,3.6032917499542236,1.129412293434143
1685921389201622500,9.50362255859375,9.30748176574707,4.0558342933654785,0.7630113363265991
1685921389211382800,9.5133828125,8.139185905456543,4.223331928253174,0.15972091257572174
1685921389221143000,9.52314306640625,7.255636692047119,3.806980848312378,-0.742672324180603
1685921389230904000,9.532904052734375,7.179066181182861,2.6240291595458984,-1.516152262687683
1685921389240664800,9.542664794921874,7.5071821212768555,0.37118661403656006,-2.435295343399048
1685921389250425000,9.552425048828125,9.41037368774414,2.1382861137390137,-0.15134602785110474
1685921389260185300,9.562185302734376,12.26650619506836,4.436592102050781,3.339184045791626
1685921389269946400,9.5719462890625,15.7429780960083,5.9566330909729,6.312565326690674
1685921389279707400,9.581707275390626,15.6134672164917,6.663113594055176,6.915855407714844
1685921389289467400,9.59146728515625,12.534801483154297,6.141179084777832,4.813760757446289
1685921389299227600,9.6012275390625,9.489336013793945,4.630411148071289,2.3670997619628906
1685921389308988700,9.61098876953125,6.338886260986328,2.870789051055908,0.4304089844226837
1685921389318749700,9.620749755859375,3.841676712036133,2.056631088256836,-1.1928220987319946
1685921389328509700,9.630509765625,3.542573928833008,1.6498512029647827,-1.815255045890808
1685921389338270000,9.64027001953125,4.011866092681885,2.1693928241729736,-0.651745080947876
1685921389348031000,9.650031005859375,4.935794830322266,2.758326292037964,1.0887342691421509
1685921389357791700,9.659791748046874,7.344470024108887,2.1068804264068604,1.806880235671997
1685921389367552000,9.669552001953125,10.41356372833252,0.5150550603866577,1.4428720474243164
1685921389377312300,9.679312255859376,11.392827033996582,-1.500898003578186,0.20518454909324646
1685921389387073300,9.6890732421875,10.13599681854248,-3.66520619392395,-1.3004990816116333
1685921389396834300,9.698834228515626,7.28464937210083,-4.089034557342529,-1.9109679460525513
1685921389406594300,9.70859423828125,3.597608804702759,-3.885345697402954,-1.4826527833938599
1685921389416354600,9.7183544921875,-0.35024940967559814,-2.654836654663086,-1.7961125373840332
1685921389426115600,9.728115478515624,-4.142574310302734,-0.7779664397239685,-4.013062477111816
1685921389435876600,9.737876708984375,-5.67966365814209,0.5461617708206177,-6.265905380249023
1685921389445636600,9.74763671875,-4.78175687789917,0.20847466588020325,-7.527521133422852
1685921389455396900,9.75739697265625,-0.865005373954773,-1.5056836605072021,-7.941778182983398
1685921389465158000,9.767157958984376,6.082555294036865,-4.077070713043213,-5.4281182289123535
1685921389474919000,9.7769189453125,15.34068489074707,-5.867799282073975,0.7103692293167114
1685921389484679000,9.786678955078125,24.165414810180664,-3.4758739471435547,10.717751502990723
1685921389494439200,9.796439208984374,29.034809112548828,4.393521308898926,21.055343627929688
1685921389504200200,9.8062001953125,27.24647331237793,6.8258256912231445,24.938596725463867
1685921389513961200,9.815961181640626,21.292232513427734,5.892026424407959,23.595624923706055
1685921389523721200,9.82572119140625,14.220246315002441,4.084548473358154,19.41566276550293
1685921389533481500,9.8354814453125,5.3093743324279785,2.5283162593841553,13.573884963989258
1685921389543242500,9.845242431640624,-0.7262216806411743,1.6402798891067505,6.152245998382568
1685921389553003500,9.85500341796875,-3.9340994358062744,2.1622142791748047,-1.1186445951461792
1685921389562763500,9.864763427734376,-1.3414762020111084,0.5222335457801819,-6.931408882141113
1685921389572523800,9.874523681640625,8.088936805725098,-5.491827011108398,-11.707781791687012
1685921389582284800,9.884284912109376,18.192031860351562,-6.717550277709961,-8.93539810180664
1685921389592045800,9.8940458984375,20.859132766723633,-3.3705897331237793,2.266601324081421
1685921389601805800,9.903805908203125,16.255043029785156,-1.9319051504135132,3.2027931213378906
1685921389611566000,9.913566162109374,16.180864334106445,-7.419245719909668,-3.5916268825531006
1685921389621327000,9.9233271484375,19.606788635253906,-17.155941009521484,-13.721342086791992
1685921389631088000,9.933088134765624,24.498018264770508,-26.052453994750977,-21.70559310913086
1685921389640848100,9.94284814453125,23.53789710998535,-27.93889617919922,-20.216360092163086
1685921389650608400,9.9526083984375,18.814464569091797,-23.638994216918945,-7.982456207275391
1685921389660369400,9.962369384765625,11.464611053466797,-14.26152229309082,6.887141704559326
1685921389670130400,9.97213037109375,4.6438703536987305,-4.639683246612549,21.40260124206543
1685921389679890400,9.981890380859374,0.5258227586746216,0.9984052777290344,30.282367706298828
1685921389689650700,9.991650634765625,-0.8434699773788452,2.6575286388397217,33.40410232543945
1685921389699411700,10.00141162109375,-2.3135604858398438,1.6091731786727905,28.553852081298828
1685921389709172700,10.0111728515625,-1.322333574295044,-2.4323041439056396,19.686050415039062
1685921389718932700,10.0209326171875,2.3264217376708984,-6.511767864227295,12.573086738586426
1685921389728693000,10.03069287109375,8.97248649597168,-10.035797119140625,7.28464937210083
1685921389738454000,10.0404541015625,17.337196350097656,-13.99083423614502,1.2945170402526855
1685921389748215000,10.050215087890624,18.910179138183594,-18.266807556152344,-5.720042705535889
1685921389757975000,10.05997509765625,15.577574729919434,-17.299509048461914,-7.8317084312438965
1685921389767735300,10.0697353515625,12.424731254577637,-13.615160942077637,-4.760221481323242
1685921389777496300,10.079496337890625,10.760822296142578,-9.506684303283691,-0.2760719060897827
1685921389787257300,10.08925732421875,9.994521141052246,-6.4064836502075195,5.094020366668701
1685921389797017600,10.099017578125,9.352945327758789,-2.226222276687622,11.481361389160156
1685921389806777600,10.108777587890625,10.842178344726562,2.652743101119995,16.755741119384766
1685921389816538600,10.11853857421875,11.306685447692871,8.166404724121094,21.122642517089844
1685921389826299600,10.128299560546875,10.578668594360352,13.95553970336914,22.32682991027832
1685921389836060000,10.138059814453126,4.066901206970215,25.595426559448242,5.050949573516846
1685921389845820000,10.14781982421875,19.858333587646484,29.074291229248047,14.411971092224121
1685921389855581000,10.157580810546875,25.460529327392578,12.358630180358887,19.64537239074707
1685921389865342000,10.167342041015624,19.889440536499023,-1.4626128673553467,12.386445999145508
1685921389875102000,10.17710205078125,4.617549419403076,-11.651849746704102,2.2067806720733643
1685921389884862200,10.1868623046875,-5.890232086181641,-15.671492576599121,-3.4672000408172607
1685921389894623200,10.196623291015625,-8.72482967376709,-17.744873046875,-4.908576488494873
1685921389904384300,10.20638427734375,-2.5887351036071777,-18.659530639648438,-4.8559346199035645
1685921389914144500,10.21614453125,5.986842155456543,-18.029619216918945,-2.770589590072632
1685921389923904500,10.225904541015625,10.557133674621582,-13.55743408203125,1.25144624710083
1685921389933665500,10.23566552734375,13.262518882751465,-9.33440113067627,3.623929977416992
1685921389943426600,10.245426513671875,13.925629615783691,-6.334698677062988,3.0613174438476562
1685921389953186800,10.255186767578126,14.416457176208496,-3.4016964435577393,3.466003656387329
1685921389962946800,10.26494677734375,16.05883026123047,-0.2584248483181,3.9759738445281982
1685921389972707800,10.274707763671875,13.719846725463867,2.140678882598877,6.322136402130127
1685921389982468900,10.28446875,13.04955768585205,3.040679454803467,7.143472671508789
1685921389992229000,10.29422900390625,10.600204467773438,1.4724832773208618,6.891927242279053
1685921390001989000,10.303989013671876,7.789535045623779,0.005084747914224863,6.207281112670898
1685921390011750100,10.313750244140625,5.531907081604004,-0.8641080856323242,5.4628143310546875
1685921390021511200,10.32351123046875,3.918546199798584,-0.9047860503196716,4.792225360870361
1685921390031271400,10.333271484375,3.9400815963745117,-0.026021946221590042,4.701298236846924
1685921390041031700,10.34303173828125,5.515157222747803,0.8213363885879517,4.950450897216797
1685921390050792400,10.35279248046875,7.631608486175537,1.6067804098129272,4.7850470542907715
1685921390060553500,10.362553466796875,10.296316146850586,1.6211373805999756,3.64546537399292
1685921390070313700,10.372313720703126,12.350554466247559,1.017846941947937,2.7406792640686035
1685921390080073700,10.38207373046875,12.704691886901855,0.2994019389152527,2.132603168487549
1685921390089834800,10.391834716796875,11.854940414428711,-0.40677985548973083,1.1581261157989502
1685921390099595800,10.401595703125,11.316256523132324,-0.9502496719360352,0.5835496187210083
1685921390109356000,10.41135595703125,10.559526443481445,-1.2445669174194336,0.6170491576194763
1685921390119116300,10.4211162109375,8.728119850158691,-1.2445669174194336,1.526919960975647
1685921390128877000,10.430876953125,7.75124979019165,-0.9789635539054871,2.190030813217163
1685921390138638000,10.44063818359375,7.827820301055908,-0.638883650302887,2.680858612060547
1685921390148398300,10.4503984375,7.662715435028076,-0.14356936514377594,3.113959550857544
1685921390158158600,10.46015869140625,8.249256134033203,0.47916272282600403,3.576073408126831
1685921390167919400,10.46991943359375,8.900403022766113,0.9433703422546387,3.9879379272460938
1685921390177680400,10.479680419921875,9.118449211120605,1.0322039127349854,4.17936372756958
1685921390187440600,10.489440673828126,9.025128364562988,0.9984052777290344,4.502694129943848
1685921390197201000,10.499200927734375,8.610871315002441,0.4624129831790924,4.428516387939453
1685921390206961700,10.508961669921876,7.988438606262207,-0.5431707501411438,4.277768611907959
1685921390216722700,10.51872265625,7.452147006988525,-1.532004714012146,4.059722900390625
1685921390226483000,10.52848291015625,7.349255561828613,-2.168794631958008,4.184149265289307
1685921390236243200,10.5382431640625,8.266005516052246,-2.583052158355713,4.1745781898498535
1685921390246004000,10.54800390625,9.374481201171875,-2.3988046646118164,4.107579231262207
1685921390255765000,10.557764892578126,9.283554077148438,-2.0730817317962646,4.289732933044434
1685921390265525200,10.567525146484375,9.652347564697266,-1.5655041933059692,4.311268329620361
1685921390275285500,10.577285400390625,9.566205978393555,-1.3142578601837158,4.280161380767822
1685921390285046500,10.587046630859374,9.252447128295898,-1.1416754722595215,3.980759620666504
1685921390294807300,10.596807373046875,9.149555206298828,-0.9813563823699951,3.6526436805725098
1685921390304567600,10.606567626953124,9.185447692871094,-0.9406784176826477,3.3415768146514893
1685921390314327800,10.616327880859375,9.015557289123535,-0.9502496719360352,3.0373892784118652
1685921390324088600,10.626088623046876,8.982057571411133,-0.1217348501086235,2.4293131828308105
1685921390333849600,10.635849609375,9.934700965881348,0.031405795365571976,2.3718855381011963
1685921390343609900,10.64560986328125,8.967700958251953,-0.9478568434715271,2.534597396850586
1685921390353370000,10.6553701171875,8.043473243713379,-0.8665009140968323,2.793321371078491
1685921390363131100,10.665131103515625,8.405088424682617,-0.3684946894645691,2.527418851852417
1685921390372892000,10.674891845703126,8.835796356201172,-0.2799602448940277,2.6090738773345947
1685921390382652200,10.684652099609375,9.290732383728027,-0.28953152894973755,2.903391122817993
1685921390392412400,10.694412353515625,9.467801094055176,-0.5910272002220154,3.260220766067505
1685921390402173400,10.70417333984375,9.479764938354492,-0.8425726890563965,3.5641093254089355
1685921390411934200,10.713934326171875,8.953044891357422,-1.5224334001541138,4.308875560760498
1685921390421694500,10.723694580078124,9.673882484436035,-2.2692930698394775,3.849154233932495
1685921390431454700,10.733454833984375,10.851749420166016,-2.8342983722686768,2.845963478088379
1685921390441215700,10.7432158203125,11.672786712646484,-3.0020952224731445,1.8451653718948364
1685921390450976800,10.752976806640625,10.758429527282715,-2.3147568702697754,1.9671993255615234
1685921390460736800,10.76273681640625,9.166305541992188,-1.3262219429016113,2.6928226947784424
1685921390470497000,10.7724970703125,8.785547256469727,-0.9502496719360352,2.7813572883605957
1685921390480258000,10.782258056640625,8.876474380493164,-0.6652047038078308,2.6090738773345947
1685921390490019000,10.79201904296875,9.046664237976074,-0.4977070987224579,2.465205430984497
1685921390499779000,10.801779052734375,9.159127235412598,-0.6460621356964111,2.4029922485351562
1685921390509539300,10.811539306640626,9.245268821716309,-0.8377870321273804,2.3670997619628906
1685921390519300400,10.82130029296875,9.367302894592285,-1.012463092803955,2.3718855381011963
1685921390529061000,10.83106103515625,9.132805824279785,-1.3405789136886597,2.316850423812866
1685921390538821400,10.8408212890625,9.520742416381836,-1.7258232831954956,2.1134605407714844
1685921390548581600,10.85058154296875,10.008877754211426,-1.716252088546753,2.173281192779541
1685921390558342700,10.8603427734375,10.073484420776367,-1.2544373273849487,2.4939193725585938
1685921390568103700,10.870103759765625,9.702596664428711,-0.8282157182693481,2.6545376777648926
1685921390577863700,10.87986376953125,9.18305492401123,-0.7827520966529846,2.635395050048828
1685921390587624000,10.8896240234375,8.948259353637695,-0.8473583459854126,2.570788860321045
1685921390597385000,10.899385009765625,9.113663673400879,-1.1057831048965454,2.316850423812866
1685921390607146000,10.90914599609375,9.45583724975586,-1.3716856241226196,2.266601324081421
1685921390616906000,10.918906005859375,9.535099029541016,-1.4506487846374512,2.3575284481048584
1685921390626666200,10.928666259765626,9.604491233825684,-1.5032907724380493,2.4029922485351562
1685921390636427300,10.93842724609375,9.64038372039795,-1.3812568187713623,2.5082762241363525
1685921390646188300,10.948188232421876,9.616455078125,-0.9430712461471558,2.1996021270751953
1685921390655948300,10.9579482421875,9.276374816894531,-0.7636095285415649,2.0608184337615967
1685921390665708500,10.96770849609375,9.072985649108887,-0.5886343717575073,2.3647069931030273
1685921390675469600,10.977469482421874,9.151947975158691,-0.7707880139350891,2.400599241256714
1685921390685230600,10.987230712890625,9.386445045471191,-0.9957132935523987,2.331207513809204
1685921390694990800,10.996990966796876,9.412766456604004,-1.256830096244812,2.345564365386963
1685921390704750800,11.006750732421875,9.278767585754395,-1.5343974828720093,2.400599241256714
1685921390714512000,11.016511962890625,9.362516403198242,-1.4003994464874268,2.268994092941284
1685921390724273000,11.02627294921875,9.5231351852417,-1.2759727239608765,2.292922258377075
1685921390734033000,11.036032958984375,9.482157707214355,-1.2544373273849487,2.5010979175567627
1685921390743793200,11.045793212890626,9.42473030090332,-1.3142578601837158,2.68325138092041
1685921390753554200,11.05555419921875,9.573384284973145,-1.3214362859725952,2.71435809135437
1685921390763315200,11.065315185546876,9.486943244934082,-1.3214362859725952,2.659323215484619
1685921390773075500,11.075075439453125,9.429515838623047,-1.2038888931274414,2.5154547691345215
1685921390782835500,11.08483544921875,9.326624870300293,-1.1991032361984253,2.417349100112915
1685921390792596500,11.094596435546874,9.3457670211792,-1.2349956035614014,2.314457654953003
1685921390802357500,11.104357421875,9.242876052856445,-1.160818099975586,2.259422779083252
1685921390812117800,11.11411767578125,9.355338096618652,-1.007677435874939,2.3359930515289307
1685921390821877800,11.123877685546875,9.477372169494629,-1.1177473068237305,2.400599241256714
1685921390831638800,11.133638671875,9.532706260681152,-1.220638632774353,2.4532413482666016
1685921390841399800,11.14339990234375,9.42473030090332,-1.2759727239608765,2.5633113384246826
1685921390851160000,11.15316015625,9.348159790039062,-1.1464611291885376,2.6138596534729004
1685921390860920300,11.16292041015625,9.333803176879883,-1.2472587823867798,2.4843480587005615
