time,seconds_elapsed,z,y,x
1685920398207643400,0.096643310546875,8.859724998474121,2.3584258556365967,-0.11545369029045105
1685920398217404000,0.10640380859375,8.835796356201172,2.2866411209106445,-0.13938191533088684
1685920398227165200,0.116165283203125,8.907581329345703,2.226820468902588,-0.12502498924732208
1685920398236926200,0.12592626953125,9.005986213684082,2.123929262161255,-0.10827522724866867
1685920398246686700,0.135686767578125,9.113663673400879,2.150250196456909,-0.11066804826259613
1685920398256447200,0.145447265625,9.276374816894531,2.0614166259765625,-0.0077766734175384045
1685920398266208500,0.15520849609375,9.458230018615723,1.8077775239944458,0.006580262444913387
1685920398275969800,0.1649697265625,9.573384284973145,1.7048860788345337,-0.05802594870328903
1685920398285730300,0.174730224609375,9.676275253295898,1.7288143634796143,-0.14416755735874176
1685920398295490600,0.184490478515625,9.685847282409668,1.8005990982055664,-0.2063809484243393
1685920398305251800,0.194251953125,9.695418357849121,1.7001005411148071,-0.18723836541175842
1685920398315013000,0.20401318359375,9.549455642700195,2.0135602951049805,-0.1704886108636856
1685920398324773600,0.213773681640625,9.60927677154541,2.1068804264068604,-0.17766708135604858
1685920398334534100,0.2235341796875,9.518050193786621,2.11405873298645,-0.11545369029045105
1685920398344295400,0.23329541015625,9.460622787475586,2.0925233364105225,-0.026919255033135414
1685920398354056400,0.243056396484375,9.510871887207031,2.008774518966675,0.049651071429252625
1685920398363817000,0.25281689453125,9.736096382141113,1.9848463535308838,0.06640082597732544
1685920398373577500,0.262577392578125,9.953843116760254,1.9202401638031006,0.07357929646968842
1685920398383338800,0.2723388671875,9.956235885620117,1.7623138427734375,0.09032905846834183
1685920398393100000,0.28210009765625,10.049555778503418,1.6378871202468872,0.047258246690034866
1685920398402860500,0.291860595703125,10.293923377990723,1.5346965789794922,-0.0364905446767807
1685920398412621000,0.30162109375,10.286744117736816,1.6019947528839111,-0.11545369029045105
1685920398422382000,0.311382080078125,10.095318794250488,1.8771693706512451,-0.1585244983434677
1685920398432143400,0.321143310546875,9.925128936767578,2.1068804264068604,-0.13698910176753998
1685920398441903900,0.33090380859375,9.750452995300293,2.3871397972106934,-0.026919255033135414
1685920398451664400,0.340664306640625,9.645169258117676,2.4661028385162354,0.14057832956314087
1685920398461425700,0.35042578125,9.46301555633545,2.39192533493042,0.10229317098855972
1685920398471187000,0.36018701171875,9.3457670211792,2.2962124347686768,0.04247260093688965
1685920398480947500,0.369947509765625,9.218947410583496,2.188535451889038,-0.019740786403417587
1685920398490707700,0.379707763671875,9.022735595703125,2.0231316089630127,-0.1585244983434677
1685920398500469000,0.389468994140625,8.96530818939209,1.812563180923462,-0.6086742877960205
1685920398510230300,0.399230224609375,8.819046974182129,1.8652052879333496,-0.48903313279151917
1685920398519990800,0.40899072265625,8.888439178466797,1.7527425289154053,0.12861421704292297
1685920398529751300,0.418751220703125,9.264410972595215,2.0709879398345947,0.03529413416981697
1685920398539512600,0.4285126953125,9.467801094055176,2.399103879928589,-0.2231307178735733
1685920398549273900,0.43827392578125,9.470193862915039,2.4445674419403076,-0.10588239878416061
1685920398559034400,0.448034423828125,9.477372169494629,2.2794625759124756,0.054436713457107544
1685920398568794600,0.457794677734375,9.309874534606934,2.1622142791748047,0.06640082597732544
1685920398578556000,0.467555908203125,9.226125717163086,2.20528507232666,-0.07956135272979736
1685920398588317200,0.477317138671875,9.204590797424316,2.164607286453247,-0.10348957777023315
1685920398598077700,0.48707763671875,9.17587661743164,2.11405873298645,-0.06999006122350693
1685920398607838200,0.496838134765625,9.295517921447754,2.0279171466827393,-0.01734796352684498
1685920398617599500,0.506599609375,9.419944763183594,1.963310956954956,-0.014955141581594944
1685920398627360800,0.51636083984375,9.611669540405273,1.7527425289154053,-0.07956135272979736
1685920398637121300,0.526121337890625,9.803094863891602,1.6761722564697266,-0.1537388563156128
1685920398646881500,0.535881591796875,9.95862865447998,1.5538392066955566,-0.2350948303937912
1685920398656642800,0.545642822265625,10.078269958496094,1.5637096166610718,-0.3167499005794525
1685920398666404000,0.555404052734375,10.097711563110352,1.6809579133987427,-0.3047857880592346
1685920398676164600,0.56516455078125,10.028020858764648,1.867598056793213,-0.2521436810493469
1685920398685925000,0.574925048828125,9.908379554748535,1.9657038450241089,-0.20877377688884735
1685920398695686400,0.584686279296875,9.779167175292969,2.0159530639648438,-0.15613168478012085
1685920398705447700,0.59444775390625,9.659525871276855,2.066202402114868,-0.14656038582324982
1685920398715208200,0.604208251953125,9.587740898132324,2.049452543258667,-0.09391828626394272
1685920398724968400,0.613968505859375,9.554242134094238,2.0231316089630127,-0.10348957777023315
1685920398734729700,0.623729736328125,9.60927677154541,2.025524377822876,-0.13938191533088684
1685920398744491000,0.633490966796875,9.59492015838623,1.9752750396728516,-0.1178465187549591
1685920398754251500,0.64325146484375,9.614062309265137,1.9872392416000366,-0.07238288223743439
1685920398764012000,0.653011962890625,9.544670104980469,2.042274236679077,-0.012562318705022335
1685920398773773300,0.662773193359375,9.474979400634766,2.111665964126587,0.03529413416981697
1685920398783534600,0.67253466796875,9.508479118347168,2.111665964126587,0.08793623000383377
1685920398793295000,0.682295166015625,9.575777053833008,2.080559253692627,0.0687936544418335
1685920398803055400,0.692055419921875,9.618847846984863,2.066202402114868,0.07118647545576096
1685920398812816600,0.701816650390625,9.683454513549805,2.0614166259765625,0.08075776696205139
1685920398822578000,0.711577880859375,9.700203895568848,2.0374884605407715,0.08315058797597885
1685920398832338400,0.72133837890625,9.673882484436035,2.0063817501068115,0.10229317098855972
1685920398842099000,0.731098876953125,9.661918640136719,1.9968105554580688,0.08793623000383377
1685920398851860200,0.740860107421875,9.645169258117676,2.035095691680908,0.08075776696205139
1685920398861621500,0.75062158203125,9.585348129272461,2.0135602951049805,0.0568295381963253
1685920398871382000,0.760382080078125,9.60209846496582,2.0039889812469482,0.07597211748361588
1685920398881142500,0.770142578125,9.645169258117676,1.9609181880950928,0.030508488416671753
1685920398890903800,0.77990380859375,9.72652530670166,1.9130617380142212,0.008973085321485996
1685920398900665000,0.7896650390625,9.743274688720703,1.848455548286438,-0.04127619042992592
1685920398910425300,0.79942529296875,9.752845764160156,1.9010975360870361,-0.012562318705022335
1685920398920185900,0.809185791015625,9.728918075561523,1.9465612173080444,-0.0077766734175384045
1685920398929947100,0.818947021484375,9.606884002685547,1.9609181880950928,0.01615155301988125
1685920398939708400,0.82870849609375,9.530313491821289,1.9417755603790283,0.006580262444913387
1685920398949469000,0.838468994140625,9.535099029541016,1.908276081085205,-0.050847481936216354
1685920398959229400,0.8482294921875,9.527920722961426,1.908276081085205,-0.046061836183071136
1685920398968990700,0.85799072265625,9.628418922424316,1.8819550275802612,0.008973085321485996
1685920398978752000,0.867751953125,9.575777053833008,1.9178473949432373,-0.03888336941599846
1685920398988512500,0.877512451171875,9.510871887207031,1.9369899034500122,-0.0005982056609354913
1685920398998272800,0.887272705078125,9.506086349487305,1.994417667388916,0.01615155301988125
1685920399008034000,0.897033935546875,9.506086349487305,2.011167526245117,0.025722842663526535
1685920399017795300,0.90679541015625,9.530313491821289,1.9752750396728516,0.10707881301641464
1685920399027555800,0.916555908203125,9.506086349487305,1.9465612173080444,0.09272187948226929
1685920399037316400,0.92631640625,9.551849365234375,1.9130617380142212,0.12143574655056
1685920399047077600,0.93607763671875,9.585348129272461,1.8628123998641968,0.14297115802764893
1685920399056839000,0.9458388671875,9.494122505187988,1.939382791519165,0.1908276081085205
1685920399066599400,0.955599365234375,9.33858871459961,1.9800606966018677,0.16450655460357666
1685920399076359700,0.965359619140625,9.312267303466797,2.0063817501068115,0.15254244208335876
1685920399086121000,0.975120849609375,9.348159790039062,2.059023857116699,0.17168502509593964
1685920399095882200,0.98488232421875,9.415159225463867,1.9896320104599,0.16929219663143158
1685920399105642800,0.994642822265625,9.472586631774902,1.9680966138839722,0.20997019112110138
1685920399115403300,1.0044033203125,9.570991516113281,1.8795621395111084,0.15972091257572174
1685920399125164500,1.01416455078125,9.614062309265137,1.8508483171463013,0.2315055876970291
1685920399134925800,1.02392578125,9.62363338470459,1.7742780447006226,0.24825534224510193
1685920399144686300,1.033686279296875,9.479764938354492,1.8245272636413574,0.23389841616153717
1685920399154446800,1.04344677734375,9.393623352050781,1.9417755603790283,0.18843477964401245
1685920399164208000,1.0532080078125,9.367302894592285,1.9489539861679077,0.18364913761615753
1685920399173969400,1.062969482421875,9.400801658630371,1.9489539861679077,0.20518454909324646
1685920399183730000,1.07272998046875,9.482157707214355,1.903490424156189,0.22911277413368225
1685920399193490200,1.082490234375,9.563813209533691,1.8652052879333496,0.21954147517681122
1685920399203251500,1.09225146484375,9.604491233825684,1.8005990982055664,0.1860419660806656
1685920399213012700,1.1020126953125,9.606884002685547,1.8436698913574219,0.1860419660806656
1685920399222773200,1.111773193359375,9.561420440673828,1.8269200325012207,0.19561325013637543
1685920399232533800,1.12153369140625,9.474979400634766,1.9369899034500122,0.23629122972488403
1685920399242295000,1.131294921875,9.369695663452148,1.9465612173080444,0.26979073882102966
1685920399252056300,1.141056396484375,9.350552558898926,1.8508483171463013,0.29371899366378784
1685920399261816800,1.15081689453125,9.367302894592285,1.8340985774993896,0.243469700217247
1685920399271577300,1.160577392578125,9.518050193786621,1.7838492393493652,0.24107688665390015
1685920399281338600,1.170338623046875,9.614062309265137,1.750349760055542,0.28893333673477173
1685920399291100000,1.180099853515625,9.597312927246094,1.7934205532073975,0.2841476798057556
1685920399300860200,1.189860107421875,9.60209846496582,1.8149559497833252,0.267397940158844
1685920399310620700,1.19962060546875,9.654740333557129,1.8699909448623657,0.3801597058773041
1685920399320382000,1.2093818359375,9.566205978393555,1.8795621395111084,0.4208376705646515
1685920399330143200,1.219143310546875,9.42473030090332,1.8963119983673096,0.4016951024532318
1685920399339903700,1.22890380859375,9.367302894592285,1.92741858959198,0.3897309899330139
1685920399349664300,1.238664306640625,9.429515838623047,1.9489539861679077,0.4064807593822479
1685920399359425500,1.248425537109375,9.590133666992188,1.9298114776611328,0.4064807593822479
1685920399369186800,1.258186767578125,9.621240615844727,1.9154545068740845,0.4447658956050873
1685920399378947300,1.267947265625,9.654740333557129,1.92741858959198,0.47587260603904724
1685920399388707800,1.277707763671875,9.582955360412598,1.9561325311660767,0.4016951024532318
1685920399398468900,1.28746875,9.506086349487305,1.908276081085205,0.3897309899330139
1685920399408230400,1.29723046875,9.357730865478516,1.8317056894302368,0.3658027648925781
1685920399417990700,1.30699072265625,9.343374252319336,1.7958134412765503,0.3080759048461914
1685920399427751200,1.316751220703125,9.376873970031738,1.688136339187622,0.23389841616153717
1685920399437512400,1.326512451171875,9.520742416381836,1.7072789669036865,0.2721835672855377
1685920399447273700,1.336273681640625,9.532706260681152,1.7288143634796143,0.32991042733192444
1685920399457034200,1.3460341796875,9.582955360412598,1.7742780447006226,0.392123818397522
1685920399466794800,1.355794677734375,9.590133666992188,1.8436698913574219,0.45912283658981323
1685920399476556000,1.36555615234375,9.664311408996582,1.817348837852478,0.5931209325790405
1685920399486317300,1.3753173828125,9.556634902954102,1.8269200325012207,0.6433702111244202
1685920399496077800,1.385077880859375,9.479764938354492,1.8149559497833252,0.6720840334892273
1685920399505838300,1.39483837890625,9.44626522064209,1.750349760055542,0.6481558084487915
1685920399515599600,1.404599609375,9.479764938354492,1.6474584341049194,0.6409773826599121
1685920399525360600,1.414360595703125,9.549455642700195,1.5708880424499512,0.6816553473472595
1685920399535121200,1.42412109375,9.467801094055176,1.5514464378356934,0.6888338327407837
1685920399544881700,1.433881591796875,9.41037368774414,1.5586248636245728,0.6984050869941711
1685920399554643000,1.443642822265625,9.367302894592285,1.6618152856826782,0.8539385795593262
1685920399564404200,1.453404296875,9.197412490844727,1.695314884185791,0.8515457510948181
1685920399574164700,1.463164794921875,9.16869831085205,1.812563180923462,0.9068797826766968
1685920399583925200,1.47292529296875,9.32183837890625,1.7694923877716064,0.97148597240448
1685920399593686500,1.4826865234375,9.525527954101562,1.7359927892684937,0.9906286001205444
1685920399603447800,1.49244775390625,9.771988868713379,1.6522440910339355,0.9978070259094238
1685920399613208300,1.502208251953125,9.786345481872559,1.5708880424499512,0.9308080077171326
1685920399622968800,1.51196875,9.695418357849121,1.5418751239776611,0.8419744968414307
1685920399632729900,1.521729736328125,9.573384284973145,1.5083755254745483,0.8156534433364868
1685920399642491100,1.5314912109375,9.621240615844727,1.4724832773208618,0.8036893010139465
1685920399652251600,1.541251708984375,9.712167739868164,1.383948802947998,0.8347960114479065
1685920399662012200,1.55101220703125,9.628418922424316,1.3887344598770142,0.8347960114479065
1685920399671773400,1.5607734375,9.568598747253418,1.4844473600387573,0.8659027218818665
1685920399681534700,1.57053466796875,9.544670104980469,1.561316728591919,0.8730811476707458
1685920399691295200,1.580295166015625,9.496515274047852,1.6402798891067505,0.9044869542121887
1685920399701055700,1.5900556640625,9.525527954101562,1.6498512029647827,0.9499505758285522
1685920399710817000,1.599817138671875,9.554242134094238,1.5466607809066772,0.97148597240448
1685920399720578300,1.609578369140625,9.697811126708984,1.3432707786560059,1.069591760635376
1685920399730338800,1.6193388671875,9.810274124145508,1.1829516887664795,1.0600204467773438
1685920399740099300,1.629099365234375,10.025628089904785,1.053739309310913,0.9906286001205444
1685920399749860600,1.638860595703125,10.17428207397461,1.0561320781707764,0.789332389831543
1685920399759622000,1.648621826171875,10.109675407409668,1.2403794527053833,0.5907281041145325
1685920399769382100,1.658382080078125,9.937093734741211,1.6139588356018066,0.45194438099861145
1685920399779142700,1.668142578125,9.736096382141113,1.7790635824203491,0.547657310962677
1685920399788904000,1.677904052734375,9.501300811767578,1.8987047672271729,0.6337988972663879
1685920399798665200,1.687665283203125,9.429515838623047,1.755135416984558,0.724726140499115
1685920399808425700,1.69742578125,9.508479118347168,1.5996019840240479,0.7007979154586792
1685920399818186200,1.707186279296875,9.654740333557129,1.4533406496047974,0.6553342938423157
1685920399827947500,1.716947509765625,9.59492015838623,1.3863415718078613,0.6481558084487915
1685920399837708800,1.726708740234375,9.458230018615723,1.4629119634628296,0.6146563291549683
1685920399847469300,1.73646923828125,9.197412490844727,1.5155540704727173,0.5739783048629761
1685920399857229800,1.746229736328125,9.037093162536621,1.5155540704727173,0.4567300081253052
1685920399866990800,1.755990966796875,8.610871315002441,1.5251253843307495,0.35862427949905396
1685920399876752100,1.765752197265625,7.844869136810303,1.4581263065338135,0.07597211748361588
1685920399886512600,1.7755126953125,6.808178424835205,1.2284153699874878,-0.3646063506603241
1685920399896273200,1.785273193359375,5.67338228225708,1.2140583992004395,-0.654137909412384
1685920399906034400,1.795034423828125,4.89272403717041,1.2403794527053833,-0.4387838542461395
1685920399915795700,1.804795654296875,3.827319860458374,1.1207382678985596,0.48065826296806335
1685920399925556200,1.81455615234375,2.345564365386963,1.1135598421096802,1.3184453248977661
1685920399935316700,1.824316650390625,-0.041575293987989426,1.1255239248275757,2.048854351043701
1685920399945078000,1.834078125,-1.5568302869796753,-0.3517449200153351,1.9887347221374512
1685920399954839300,1.84383935546875,-2.3183460235595703,-0.6293123364448547,0.6529414653778076
1685920399964599800,1.853599853515625,-0.11575279384851456,-0.1698904037475586,0.6266204118728638
1685920399974360300,1.8633603515625,-0.02961117960512638,-0.14356936514377594,0.5596213936805725
1685920399984121300,1.873121337890625,0.006580262444913387,-0.15314064919948578,0.6146563291549683
1685920399993883000,1.8828828125,-0.041575293987989426,-0.1217348501086235,0.5644070506095886
1685920400003643100,1.89264306640625,0.023330021649599075,-0.14356936514377594,0.5404788255691528
1685920400013403600,1.902403564453125,0.008973085321485996,-0.11694920808076859,0.514157772064209
1685920400023165000,1.9121650390625,0.0687936544418335,-0.15074782073497772,0.5644070506095886
1685920400032926200,1.92192626953125,0.08554340898990631,-0.1459621787071228,0.5715855360031128
1685920400042686700,1.931686767578125,0.08793623000383377,-0.09780662506818771,0.5428716540336609
1685920400052447200,1.941447265625,0.054436713457107544,-0.12442677468061447,0.5261218547821045
1685920400062208500,1.95120849609375,0.0975075215101242,-0.10259227454662323,0.5380859971046448
1685920400071969800,1.9609697265625,0.10468599200248718,-0.1217348501086235,0.516550600528717
1685920400081730300,1.970730224609375,0.15493527054786682,-0.14356936514377594,0.5380859971046448
1685920400091490800,1.98049072265625,0.15972091257572174,-0.09780662506818771,0.5380859971046448
1685920400101252000,1.990252197265625,0.1453639715909958,-0.07866404205560684,0.5333003401756287
1685920400111013400,2.000013427734375,0.16450655460357666,-0.11455638706684113,0.5021936297416687
1685920400120774000,2.00977392578125,0.1453639715909958,-0.04995017126202583,0.48065826296806335
1685920400130534400,2.019534423828125,0.15972091257572174,-0.040378883481025696,0.48783671855926514
1685920400140295400,2.02929541015625,0.15972091257572174,-0.07866404205560684,0.4734797775745392
1685920400150056700,2.039056640625,0.1621137410402298,-0.042771704494953156,0.4782654345035553
1685920400159817200,2.048817138671875,0.19322042167186737,-0.05952146276831627,0.49980083107948303
1685920400169577700,2.05857763671875,0.19561325013637543,-0.02841476909816265,0.46869412064552307
1685920400179339000,2.068339111328125,0.22193430364131927,-0.05234299600124359,0.4663013219833374
1685920400189100300,2.078100341796875,0.16450655460357666,-0.04755735024809837,0.46869412064552307
1685920400198860800,2.08786083984375,0.15732808411121368,0.009870393201708794,0.4567300081253052
1685920400208621300,2.097621337890625,0.1908276081085205,-0.03559323772788048,0.4375874400138855
1685920400218382600,2.107382568359375,0.15732808411121368,-0.03320041298866272,0.4543372094631195
1685920400228143900,2.117143798828125,0.14057832956314087,0.026620151475071907,0.46869412064552307
1685920400237904400,2.126904296875,0.11186445504426956,-0.03320041298866272,0.4136592149734497
1685920400247664600,2.13666455078125,0.09511470049619675,0.007477570790797472,0.4016951024532318
1685920400257426200,2.14642626953125,0.08793623000383377,-0.011665010824799538,0.42323049902915955
1685920400267187200,2.156187255859375,0.07118647545576096,0.012263216078281403,0.3897309899330139
1685920400276947700,2.16594775390625,0.018544375896453857,0.01944168470799923,0.3801597058773041
1685920400286708200,2.175708251953125,0.001794616924598813,0.007477570790797472,0.4088735580444336
1685920400296469500,2.185469482421875,-0.017647067084908485,-0.018843477591872215,0.4184448719024658
1685920400306230800,2.195230712890625,-0.06311069428920746,-0.018843477591872215,0.39930227398872375
1685920400315991300,2.2049912109375,-0.08464609831571579,-0.00687936507165432,0.42323049902915955
1685920400325751800,2.214751708984375,13.111770629882812,13.799707412719727,78.53782653808594
1685920400335513000,2.22451318359375,9.484550476074219,-59.71588134765625,78.53782653808594
1685920400345274400,2.2342744140625,-3.8001015186309814,-18.79831314086914,78.53782653808594
1685920400355035000,2.244034912109375,-0.8195417523384094,6.461817741394043,6.034997940063477
1685920400364795400,2.25379541015625,-0.4579264223575592,0.33529427647590637,0.6792625188827515
1685920400374556700,2.263556640625,-0.1827518343925476,-0.20817556977272034,0.516550600528717
1685920400384318000,2.27331787109375,-0.16839489340782166,-0.20338992774486542,0.49980083107948303
1685920400394078500,2.283078369140625,-0.14446666836738586,-0.24167509377002716,0.47587260603904724
1685920400403838700,2.292838623046875,-0.11814561486244202,-0.275174617767334,0.49980083107948303
1685920400413600000,2.30260009765625,-0.12293126434087753,-0.23688943684101105,0.5069792866706848
1685920400423361300,2.312361328125,-0.16360925137996674,-0.24646073579788208,0.5021936297416687
1685920400433121800,2.322121826171875,-0.14685949683189392,-0.31824541091918945,0.5309075117111206
1685920400442882300,2.33188232421875,-0.13489536941051483,-0.26560330390930176,0.514157772064209
1685920400452643600,2.3416435546875,-0.15164513885974884,-0.28953152894973755,0.545264482498169
1685920400462404900,2.35140478515625,-0.1420738399028778,-0.32542386651039124,0.547657310962677
1685920400472165400,2.361165283203125,-0.15882360935211182,-0.3206382393836975,0.5237290859222412
1685920400481926000,2.37092578125,-0.14685949683189392,-0.31824541091918945,0.5333003401756287
1685920400491687200,2.380687255859375,-0.1133599728345871,-0.275174617767334,0.5237290859222412
1685920400501448400,2.390448486328125,-0.07746763527393341,-0.33020952343940735,0.5309075117111206
1685920400511209000,2.400208984375,-0.07028916478157043,-0.3158525824546814,0.5380859971046448
1685920400520969200,2.40996923828125,-0.022432712838053703,-0.33020952343940735,0.516550600528717
1685920400530730500,2.41973046875,-0.05832505226135254,-0.3326023519039154,0.5117649435997009
1685920400540491800,2.42949169921875,-0.10857433080673218,-0.37806597352027893,0.5261218547821045
1685920400550252300,2.439252197265625,-0.07986045628786087,-0.4043870270252228,0.5428716540336609
1685920400560012800,2.4490126953125,-0.10857433080673218,-0.3900300860404968,0.5309075117111206
1685920400569774000,2.458774169921875,-0.06789634376764297,-0.3565305769443512,0.5285146832466125
1685920400579535400,2.468535400390625,0.11904292553663254,-0.18903298676013947,0.6218347549438477
1685920400589295900,2.4782958984375,1.1126625537872314,1.5900306701660156,1.2634103298187256
1685920400599056400,2.488056396484375,2.3024935722351074,7.065107822418213,3.1549365520477295
1685920400608817700,2.497817626953125,3.0948169231414795,15.810874938964844,5.793023586273193
1685920400618579000,2.507578857421875,3.0565319061279297,24.27877426147461,7.957331657409668
1685920400628339500,2.51733935546875,-1.846660852432251,27.379274368286133,6.7316083908081055
1685920400638100000,2.527099853515625,-6.74237585067749,18.224037170410156,2.2498514652252197
1685920400647861200,2.536861328125,-6.170192241668701,6.186643123626709,-0.6876373887062073
1685920400657622500,2.54662255859375,-2.6341986656188965,-1.2014961242675781,-1.7841483354568481
1685920400667382800,2.5563828125,20.76102638244629,-3.521636724472046,-6.167799472808838
1685920400677143300,2.566143310546875,41.44099807739258,-4.038486480712891,-9.706186294555664
1685920400686904600,2.575904541015625,52.851470947265625,-10.296914100646973,-12.335000991821289
1685920400696665900,2.585665771484375,35.539695739746094,-15.116059303283691,-8.382356643676758
1685920400706426400,2.59542626953125,12.326326370239258,-11.180164337158203,-3.2518460750579834
1685920400716187000,2.605186767578125,3.925724744796753,-7.318448066711426,-1.3555340766906738
1685920400725948200,2.6149482421875,2.630310297012329,-5.338686466217041,-0.9702895879745483
1685920400735709400,2.62470947265625,3.9014973640441895,-4.529314041137695,-0.7980063557624817
1685920400745470000,2.634469970703125,6.899106025695801,-2.233400821685791,0.3200400173664093
1685920400755230500,2.64423046875,9.855737686157227,0.44805604219436646,1.2586246728897095
1685920400764991700,2.65399169921875,11.309078216552734,2.123929262161255,1.806880235671997
1685920400774753000,2.6637529296875,10.619346618652344,2.5211377143859863,2.2642083168029785
1685920400784513500,2.673513427734375,9.350552558898926,1.1853444576263428,1.6513466835021973
1685920400794273800,2.683273681640625,9.779167175292969,-0.5670989751815796,0.2745763957500458
1685920400804035000,2.69303515625,9.903594017028809,-1.3214362859725952,-0.2183450609445572
1685920400813796400,2.70279638671875,9.59252643585205,-1.2592228651046753,-0.1010967567563057
1685920400823556900,2.712556884765625,9.611669540405273,-0.3684946894645691,0.2745763957500458
1685920400833317400,2.7223173828125,9.824630737304688,-0.03559323772788048,0.4567300081253052
1685920400843078700,2.73207861328125,9.652347564697266,-0.15074782073497772,0.7606185078620911
1685920400852840000,2.74183984375,9.877272605895996,-0.23688943684101105,0.6864410042762756
1685920400862600400,2.751600341796875,9.745667457580566,-0.5144568681716919,0.3442673683166504
1685920400872361000,2.76136083984375,9.585348129272461,-0.6870391964912415,0.03290131315588951
1685920400882122200,2.771122314453125,9.714560508728027,-0.24406790733337402,0.29850462079048157
1685920400891883500,2.780883544921875,9.800702095031738,-0.18424734473228455,0.6864410042762756
1685920400901644000,2.79064404296875,9.791131019592285,-0.4043870270252228,0.7127620577812195
1685920400911404500,2.800404541015625,9.661918640136719,-0.5383850932121277,0.42323049902915955
1685920400921165800,2.810165771484375,9.690632820129395,-0.3924229145050049,0.17168502509593964
1685920400930927000,2.819927001953125,9.760024070739746,-0.3445664644241333,0.3658027648925781
1685920400940687400,2.829687255859375,9.721739768981934,-0.33738797903060913,0.5907281041145325
1685920400950447900,2.83944775390625,9.838987350463867,-0.3732803463935852,0.6218347549438477
1685920400960209200,2.849209228515625,9.712167739868164,-0.4426721930503845,0.3490529954433441
1685920400969970400,2.858970458984375,9.633204460144043,-0.38763725757598877,0.2315055876970291
1685920400979731000,2.86873095703125,9.769596099853516,-0.3278166949748993,0.41605204343795776
1685920400989491500,2.878491455078125,9.760024070739746,-0.39481574296951294,0.547657310962677
1685920400999252700,2.888252685546875,9.745667457580566,-0.4163511395454407,0.5835496187210083
1685920401009014000,2.898013916015625,9.728918075561523,-0.37088751792907715,0.3729812204837799
1685920401018774500,2.9077744140625,9.71695327758789,-0.3732803463935852,0.28893333673477173
1685920401028535000,2.91753515625,9.697811126708984,-0.3900300860404968,0.41126638650894165
1685920401038296300,2.92729638671875,9.745667457580566,-0.3684946894645691,0.5380859971046448
1685920401048057600,2.9370576171875,9.724132537841797,-0.3684946894645691,0.4854438900947571
1685920401057818000,2.946818115234375,9.697811126708984,-0.3326023519039154,0.33469605445861816
1685920401067578600,2.95657861328125,9.714560508728027,-0.35892340540885925,0.3562314808368683
1685920401077339600,2.966339599609375,9.795916557312012,-0.39481574296951294,0.4543372094631195
1685920401087101000,2.976100830078125,9.781559944152832,-0.37088751792907715,0.5333003401756287
1685920401096861400,2.985861328125,9.72652530670166,-0.34217363595962524,0.45194438099861145
1685920401106622000,2.9956220703125,9.721739768981934,-0.4091726839542389,0.3562314808368683
1685920401116383200,3.00538330078125,9.707382202148438,-0.40677985548973083,0.38255253434181213
1685920401126144500,3.01514453125,9.76241683959961,-0.4331009089946747,0.4782654345035553
1685920401135905000,3.024905029296875,9.738489151000977,-0.3732803463935852,0.49980083107948303
1685920401145665500,3.03466552734375,9.7097749710083,-0.33499518036842346,0.45194438099861145
1685920401155426800,3.0444267578125,9.71695327758789,-0.3852444589138031,0.34187453985214233
1685920401165188000,3.05418798828125,9.728918075561523,-0.40677985548973083,0.4495515525341034
1685920401174948600,3.063948486328125,9.767203330993652,-0.4043870270252228,0.5045864582061768
1685920401184709000,3.073709228515625,9.74806022644043,-0.33738797903060913,0.47108694911003113
1685920401194470400,3.083470458984375,9.75523853302002,-0.3732803463935852,0.4088735580444336
1685920401204231700,3.093231689453125,9.731310844421387,-0.4259224236011505,0.39930227398872375
1685920401213992000,3.102991943359375,9.752845764160156,-0.4259224236011505,0.4256233274936676
1685920401223752400,3.11275244140625,9.764810562133789,-0.39481574296951294,0.43519461154937744
1685920401233513700,3.122513671875,9.700203895568848,-0.3086741268634796,0.42801615595817566
1685920401243275000,3.13227490234375,9.669096946716309,-0.32303106784820557,0.4016951024532318
1685920401253035500,3.142035400390625,9.7097749710083,-0.380458801984787,0.39451664686203003
1685920401262796000,3.151796142578125,9.812666893005371,-0.380458801984787,0.42801615595817566
1685920401272557300,3.161557373046875,9.724132537841797,-0.33499518036842346,0.42801615595817566
1685920401282318600,3.171318603515625,9.74806022644043,-0.3278166949748993,0.4064807593822479
1685920401292079000,3.1810791015625,9.721739768981934,-0.38763725757598877,0.4064807593822479
1685920401301839600,3.190839599609375,9.743274688720703,-0.363709032535553,0.4304089844226837
1685920401311601000,3.200600830078125,9.72652530670166,-0.3900300860404968,0.4375874400138855
1685920401321362200,3.210362060546875,9.74088191986084,-0.35892340540885925,0.47108694911003113
1685920401331122700,3.220122802734375,9.73370361328125,-0.4211367964744568,0.43998026847839355
1685920401340883200,3.22988330078125,9.728918075561523,-0.39960137009620667,0.41605204343795776
1685920401350644200,3.239644287109375,9.774381637573242,-0.38285163044929504,0.4256233274936676
1685920401360405800,3.24940576171875,9.757631301879883,-0.34217363595962524,0.43998026847839355
1685920401370166000,3.259166015625,9.719346046447754,-0.4091726839542389,0.4328017830848694
1685920401379926500,3.268926513671875,9.728918075561523,-0.3924229145050049,0.45194438099861145
1685920401389687800,3.278687744140625,9.738489151000977,-0.4043870270252228,0.38733816146850586
1685920401399449000,3.288448974609375,9.714560508728027,-0.3852444589138031,0.3969094455242157
1685920401409209600,3.298209716796875,9.73370361328125,-0.3732803463935852,0.4088735580444336
1685920401418970000,3.30797021484375,9.731310844421387,-0.3732803463935852,0.4304089844226837
1685920401428731400,3.3177314453125,9.795916557312012,-0.40677985548973083,0.46869412064552307
1685920401438492700,3.32749267578125,9.745667457580566,-0.38763725757598877,0.4088735580444336
1685920401448253200,3.337253173828125,9.760024070739746,-0.4019941985607147,0.4208376705646515
1685920401458013700,3.347013671875,9.707382202148438,-0.36610186100006104,0.43998026847839355
1685920401467775000,3.35677490234375,9.73370361328125,-0.39481574296951294,0.40408793091773987
1685920401477536300,3.366536376953125,9.75523853302002,-0.380458801984787,0.43998026847839355
1685920401487296500,3.376296630859375,9.745667457580566,-0.3565305769443512,0.4447658956050873
1685920401497057000,3.38605712890625,9.757631301879883,-0.3924229145050049,0.4495515525341034
1685920401506818300,3.395818359375,9.74088191986084,-0.397208571434021,0.4447658956050873
1685920401516579600,3.40557958984375,9.73370361328125,-0.4163511395454407,0.4495515525341034
1685920401526340000,3.415340087890625,9.743274688720703,-0.41874396800994873,0.4304089844226837
1685920401536100600,3.4251005859375,9.74088191986084,-0.39481574296951294,0.4447658956050873
1685920401545862000,3.43486181640625,9.721739768981934,-0.34217363595962524,0.3801597058773041
1685920401555623200,3.444623046875,9.745667457580566,-0.31824541091918945,0.43998026847839355
1685920401565383700,3.4543837890625,9.757631301879883,-0.36610186100006104,0.4256233274936676
1685920401575144200,3.464144287109375,9.767203330993652,-0.37088751792907715,0.4375874400138855
1685920401584905500,3.473905517578125,9.719346046447754,-0.4139583110809326,0.4088735580444336
1685920401594666800,3.483666748046875,9.719346046447754,-0.3900300860404968,0.4256233274936676
1685920401604427300,3.49342724609375,9.721739768981934,-0.40677985548973083,0.46869412064552307
1685920401614187800,3.503187744140625,9.72652530670166,-0.397208571434021,0.4447658956050873
1685920401623949000,3.512948974609375,9.719346046447754,-0.3684946894645691,0.43519461154937744
1685920401633710300,3.52271044921875,9.72652530670166,-0.35892340540885925,0.4304089844226837
1685920401643470600,3.532470703125,9.704989433288574,-0.3924229145050049,0.41605204343795776
1685920401653231000,3.542231201171875,9.702596664428711,-0.363709032535553,0.4423730969429016
1685920401662992400,3.551992431640625,9.738489151000977,-0.3756731450557709,0.4184448719024658
1685920401672753700,3.561753662109375,9.72652530670166,-0.380458801984787,0.41605204343795776
1685920401682514200,3.57151416015625,9.724132537841797,-0.3732803463935852,0.43998026847839355
1685920401692274700,3.581274658203125,9.743274688720703,-0.4163511395454407,0.42323049902915955
1685920401702036000,3.591035888671875,9.776774406433105,-0.3924229145050049,0.44715872406959534
1685920401711797200,3.60079736328125,9.76241683959961,-0.3756731450557709,0.40408793091773987
1685920401721557800,3.610557861328125,9.719346046447754,-0.34695929288864136,0.42323049902915955
1685920401731318300,3.620318359375,9.74806022644043,-0.38763725757598877,0.4184448719024658
1685920401741079600,3.63007958984375,9.719346046447754,-0.36610186100006104,0.43519461154937744
1685920401750840800,3.6398408203125,9.736096382141113,-0.3732803463935852,0.4304089844226837
1685920401760601300,3.649601318359375,9.719346046447754,-0.380458801984787,0.42323049902915955
1685920401770361900,3.65936181640625,9.724132537841797,-0.35892340540885925,0.4328017830848694
1685920401780123100,3.669123046875,9.724132537841797,-0.3732803463935852,0.4495515525341034
1685920401789884200,3.67888427734375,9.750452995300293,-0.3900300860404968,0.43519461154937744
1685920401799644700,3.688644775390625,9.752845764160156,-0.35892340540885925,0.4423730969429016
1685920401809405200,3.6984052734375,9.767203330993652,-0.3613162338733673,0.43998026847839355
1685920401819166500,3.70816650390625,9.736096382141113,-0.35413774847984314,0.4304089844226837
1685920401828927700,3.717927734375,9.736096382141113,-0.40677985548973083,0.4375874400138855
1685920401838688300,3.727688232421875,9.75523853302002,-0.37806597352027893,0.4447658956050873
1685920401848448800,3.73744873046875,9.73370361328125,-0.34217363595962524,0.4567300081253052
1685920401858210000,3.7472099609375,9.685847282409668,-0.39481574296951294,0.4375874400138855
1685920401867971300,3.756971435546875,9.75523853302002,-0.35892340540885925,0.4328017830848694
1685920401877731800,3.76673193359375,9.74088191986084,-0.3684946894645691,0.42323049902915955
1685920401887492400,3.776492431640625,9.719346046447754,-0.39481574296951294,0.4543372094631195
1685920401897253600,3.786253662109375,9.724132537841797,-0.3924229145050049,0.4184448719024658
1685920401907015000,3.796014892578125,9.731310844421387,-0.3517449200153351,0.4184448719024658
1685920401916775400,3.805775390625,9.731310844421387,-0.35892340540885925,0.41126638650894165
1685920401926536000,3.815535888671875,9.760024070739746,-0.35413774847984314,0.46869412064552307
1685920401936297200,3.825297119140625,9.724132537841797,-0.44027936458587646,0.3729812204837799
1685920401946058500,3.83505859375,9.669096946716309,-0.4713860750198364,0.3658027648925781
1685920401955818800,3.84481884765625,9.724132537841797,-0.3613162338733673,0.45194438099861145
1685920401965579300,3.854579345703125,9.843772888183594,-0.31824541091918945,0.4615156650543213
1685920401975340500,3.864340576171875,9.736096382141113,-0.4713860750198364,0.392123818397522
1685920401985101800,3.874101806640625,9.76241683959961,-0.41874396800994873,0.4064807593822479
1685920401994862300,3.8838623046875,9.752845764160156,-0.38763725757598877,0.4615156650543213
1685920402004622800,3.893622802734375,9.728918075561523,-0.33499518036842346,0.4375874400138855
1685920402014384000,3.903384033203125,9.736096382141113,-0.2967100143432617,0.377766877412796
1685920402024145400,3.9131455078125,9.690632820129395,-0.34695929288864136,0.42323049902915955
1685920402033906000,3.922906005859375,9.75523853302002,-0.31106695532798767,0.43998026847839355
1685920402043666400,3.93266650390625,9.795916557312012,-0.31824541091918945,0.41605204343795776
1685920402053427700,3.942427734375,9.724132537841797,-0.3086741268634796,0.4184448719024658
1685920402063189000,3.95218896484375,9.707382202148438,-0.29431718587875366,0.35383865237236023
1685920402072949500,3.961949462890625,9.704989433288574,-0.30628129839897156,0.3490529954433441
1685920402082710000,3.9717099609375,9.750452995300293,-0.30149564146995544,0.42323049902915955
1685920402092471000,3.981470947265625,9.7097749710083,-0.3517449200153351,0.4208376705646515
1685920402102232600,3.991232666015625,9.743274688720703,-0.28235307335853577,0.4184448719024658
1685920402111992800,4.000992919921875,9.75523853302002,-0.25363919138908386,0.4136592149734497
1685920402121753300,4.01075341796875,9.769596099853516,-0.31824541091918945,0.3275175988674164
1685920402131514600,4.0205146484375,9.707382202148438,-0.34695929288864136,0.2913261651992798
1685920402141276000,4.03027587890625,9.74088191986084,-0.3086741268634796,0.27696922421455383
1685920402151036400,4.040036376953125,9.728918075561523,-0.2560320198535919,0.28175488114356995
1685920402160797000,4.049796875,9.71695327758789,-0.2632105052471161,0.3008974492549896
1685920402170558200,4.05955810546875,9.736096382141113,-0.24646073579788208,0.35383865237236023
1685920402180319500,4.069319580078125,9.745667457580566,-0.3517449200153351,0.36340993642807007
1685920402190080000,4.079080078125,9.75523853302002,-0.39481574296951294,0.34187453985214233
1685920402199840500,4.088840576171875,9.728918075561523,-0.3086741268634796,0.3658027648925781
1685920402209601800,4.098601806640625,9.72652530670166,-0.275174617767334,0.3849453330039978
1685920402219363000,4.108363037109375,9.743274688720703,-0.2679961323738098,0.4016951024532318
1685920402229123300,4.118123291015625,9.752845764160156,-0.33499518036842346,0.3514458239078522
