time,seconds_elapsed,z,y,x
1685919707640097000,0.178096923828125,8.618049621582031,4.048655986785889,-0.8889335989952087
1685919707650053000,0.18805322265625,8.639585494995117,4.067798614501953,-0.8267202377319336
1685919707660009200,0.19800927734375,8.732905387878418,4.041477680206299,-0.7980063557624817
1685919707669965600,0.207965576171875,8.792725563049316,4.118047714233398,-0.7881359457969666
1685919707679921700,0.217921630859375,8.869296073913574,4.091726779937744,-0.7307082414627075
1685919707689877800,0.227877685546875,8.953044891357422,4.060619831085205,-0.773779034614563
1685919707699834000,0.237834228515625,8.931509971618652,4.082155227661133,-0.742672324180603
1685919707709790500,0.24779052734375,8.907581329345703,4.094119548797607,-0.773779034614563
1685919707719746600,0.25774658203125,8.914759635925293,4.144368648529053,-0.7857431173324585
1685919707729702700,0.26770263671875,8.871688842773438,4.163511276245117,-0.7857431173324585
1685919707739659000,0.277658935546875,8.850153923034668,4.1347975730896,-0.8003991842269897
1685919707749615400,0.287615478515625,8.850153923034668,4.158725738525391,-0.8410771489143372
1685919707759571500,0.297571533203125,8.886046409606934,4.118047714233398,-0.8458628058433533
1685919707769527600,0.307527587890625,8.900403022766113,4.132404804229736,-0.8075776696205139
1685919707779484000,0.31748388671875,8.941081047058105,4.1347975730896,-0.7857431173324585
1685919707789440300,0.327440185546875,8.929117202758789,4.115654945373535,-0.7546364665031433
1685919707799396400,0.337396240234375,8.926724433898926,4.086941242218018,-0.8219345808029175
1685919707809352700,0.347352783203125,8.974879264831543,4.1036906242370605,-0.8554341197013855
1685919707819308800,0.357308837890625,9.039485931396484,4.153940200805664,-0.8889335989952087
1685919707829265200,0.36726513671875,9.027522087097168,4.115654945373535,-0.8458628058433533
1685919707839167700,0.377167724609375,8.895617485046387,4.120440483093262,-0.8195417523384094
1685919707848973300,0.386973388671875,8.833403587341309,4.163511276245117,-0.8291130661964417
1685919707858734600,0.396734619140625,8.828618049621582,4.151547431945801,-0.7881359457969666
1685919707868495400,0.406495361328125,8.854939460754395,4.118047714233398,-0.7474579811096191
1685919707878256000,0.416256103515625,8.907581329345703,4.082155227661133,-0.773779034614563
1685919707888017700,0.426017578125,8.91236686706543,4.086941242218018,-0.7163512706756592
1685919707897779200,0.435779296875,8.921937942504883,4.043870449066162,-0.7283154129981995
1685919707907540000,0.4455400390625,8.893224716186523,4.115654945373535,-0.6684948205947876
1685919707917300700,0.45530078125,8.697012901306152,4.043870449066162,-0.5967101454734802
1685919707927062300,0.465062255859375,8.708976745605469,3.9290146827697754,-0.5919244885444641
1685919707936823800,0.47482373046875,8.854939460754395,4.022335052490234,-0.7163512706756592
1685919707946584600,0.48458447265625,8.89801025390625,4.086941242218018,-0.5727819204330444
1685919707956345300,0.494345458984375,8.708976745605469,3.806980848312378,-0.7980063557624817
1685919707966107000,0.50410693359375,9.125627517700195,4.070191383361816,-0.7187440991401672
1685919707975868400,0.513868408203125,9.125627517700195,4.012763500213623,-0.41485562920570374
1685919707985629200,0.523629150390625,8.960223197937012,4.015156269073486,-0.35024940967559814
1685919707995390000,0.533389892578125,9.20698356628418,4.12761926651001,-0.5679962635040283
1685919708005151500,0.5431513671875,9.020342826843262,4.024727821350098,-0.7331010103225708
1685919708014913000,0.5529130859375,8.931509971618652,4.0079779624938965,-0.709172785282135
1685919708024673800,0.562673828125,8.929117202758789,4.12761926651001,-0.5991029739379883
1685919708034434600,0.5724345703125,8.886046409606934,4.125226020812988,-0.5823532342910767
1685919708044196000,0.582196044921875,8.900403022766113,4.063013076782227,-0.709172785282135
1685919708053957600,0.59195751953125,8.96530818939209,3.8979079723358154,-0.836291491985321
1685919708063718400,0.601718505859375,9.240483283996582,4.0079779624938965,-0.4507479667663574
1685919708073479000,0.61147900390625,9.034700393676758,4.027120590209961,-0.4459623098373413
1685919708083240700,0.62124072265625,9.010771751403809,3.926621913909912,-0.5273182988166809
1685919708093002000,0.631001953125,8.957830429077148,3.869194269180298,-0.6732804775238037
1685919708102762800,0.6407626953125,8.814261436462402,3.8811583518981934,-0.7067800164222717
1685919708112523500,0.6505234375,8.764012336730957,3.9433717727661133,-0.709172785282135
1685919708122285000,0.66028515625,8.79511833190918,3.996013879776001,-0.6900302171707153
1685919708132046600,0.670046630859375,8.730512619018555,3.9912281036376953,-0.6924230456352234
1685919708141807400,0.679807373046875,8.735298156738281,3.9984066486358643,-0.6661019921302795
1685919708151568100,0.689568115234375,8.742476463317871,4.012763500213623,-0.6254240274429321
1685919708161329700,0.69932958984375,8.78076171875,4.034298896789551,-0.6924230456352234
1685919708171091200,0.70909130859375,8.921937942504883,4.012763500213623,-0.7019943594932556
1685919708180852000,0.71885205078125,9.053842544555664,4.0079779624938965,-0.6924230456352234
1685919708190612700,0.72861279296875,9.379266738891602,3.667897939682007,-0.5009972453117371
1685919708200374300,0.738374267578125,8.512765884399414,3.9912281036376953,-0.3693920075893402
1685919708210135800,0.7481357421875,9.0514497756958,4.4389848709106445,-0.29042884707450867
1685919708219896600,0.757896484375,8.819046974182129,4.137190341949463,-0.4866403043270111
1685919708229657300,0.7676572265625,8.67308521270752,3.9385859966278076,-0.6326025128364563
1685919708239419000,0.7774189453125,8.67069149017334,3.9912281036376953,-0.620638370513916
1685919708249180400,0.787180419921875,8.567800521850586,4.070191383361816,-0.5153541564941406
1685919708258941200,0.796941162109375,8.737690925598145,4.094119548797607,-0.47706902027130127
1685919708268702000,0.806701904296875,8.730512619018555,4.034298896789551,-0.44356951117515564
1685919708278463500,0.81646337890625,8.847761154174805,4.039084434509277,-0.5273182988166809
1685919708288225000,0.82622509765625,8.77358341217041,4.015156269073486,-0.5273182988166809
1685919708297985800,0.83598583984375,8.75922679901123,4.043870449066162,-0.47706902027130127
1685919708307746600,0.84574658203125,8.914759635925293,4.029513359069824,-0.4914259612560272
1685919708317508000,0.855508056640625,9.008378982543945,4.039084434509277,-0.4746761918067932
1685919708327269600,0.86526953125,9.163912773132324,3.94815731048584,-0.481854647397995
1685919708337030400,0.875030517578125,9.204590797424316,3.9074792861938477,-0.4866403043270111
1685919708346791200,0.884791259765625,9.07537841796875,3.9744784832000732,-0.37896329164505005
1685919708356552700,0.894552734375,8.950652122497559,4.00319242477417,-0.27846473455429077
1685919708366314200,0.904314208984375,8.850153923034668,4.046263217926025,-0.35503506660461426
1685919708376075000,0.914074951171875,8.735298156738281,4.046263217926025,-0.39092740416526794
1685919708385835800,0.923835693359375,8.68026351928711,4.070191383361816,-0.4100699722766876
1685919708395597300,0.933597412109375,8.637192726135254,4.077369689941406,-0.3813561201095581
1685919708405358800,0.94335888671875,8.76640510559082,4.041477680206299,-0.39092740416526794
1685919708415119600,0.95311962890625,9.037093162536621,3.8883368968963623,-0.271286278963089
1685919708424880400,0.96288037109375,8.948259353637695,4.0558342933654785,-0.2521436810493469
1685919708434642000,0.972641845703125,9.202198028564453,3.9433717727661133,-0.38614174723625183
1685919708444403500,0.982403564453125,9.197412490844727,3.9840497970581055,-0.4244269132614136
1685919708454164200,0.992164306640625,9.029914855957031,4.01754903793335,-0.5201398134231567
1685919708463925000,1.001925048828125,8.931509971618652,3.9457645416259766,-0.5129613280296326
1685919708473686500,1.0116865234375,8.75922679901123,3.9840497970581055,-0.42681974172592163
1685919708483448000,1.021447998046875,8.63479995727539,4.01754903793335,-0.3334996700286865
1685919708493208800,1.031208740234375,8.668298721313477,4.046263217926025,-0.32153555750846863
1685919708502969600,1.040969482421875,8.732905387878418,3.9529430866241455,-0.3454637825489044
1685919708512731100,1.050731201171875,8.89083194732666,3.9840497970581055,-0.30239295959472656
1685919708522492700,1.06049267578125,8.871688842773438,3.981656789779663,-0.3981058597564697
1685919708532253400,1.07025341796875,8.989236831665039,3.9912281036376953,-0.44835513830184937
1685919708542014200,1.08001416015625,8.967700958251953,4.01037073135376,-0.4411766827106476
1685919708551775700,1.089775634765625,9.017950057983398,3.964907169342041,-0.4411766827106476
1685919708561537300,1.099537353515625,9.034700393676758,3.924229145050049,-0.3885345757007599
1685919708571298000,1.109298095703125,9.020342826843262,3.8979079723358154,-0.3358924686908722
1685919708581058800,1.119058837890625,9.022735595703125,3.893122434616089,-0.3646063506603241
1685919708590820400,1.1288203125,9.032307624816895,3.9194436073303223,-0.41485562920570374
1685919708600582000,1.138581787109375,8.893224716186523,3.90987229347229,-0.44356951117515564
1685919708610342700,1.1483427734375,8.807083129882812,3.9744784832000732,-0.4938187599182129
1685919708620103400,1.158103515625,8.747262001037598,3.996013879776001,-0.47228336334228516
1685919708629865000,1.167864990234375,8.797511100769043,4.005585193634033,-0.587138831615448
1685919708639626500,1.17762646484375,8.771190643310547,4.063013076782227,-0.6134598851203918
1685919708649387300,1.18738720703125,8.845368385314941,3.981656789779663,-0.5416752099990845
1685919708659148000,1.19714794921875,9.010771751403809,3.9792640209198,-0.4292125701904297
1685919708668909600,1.20690966796875,8.957830429077148,3.902693748474121,-0.4100699722766876
1685919708678671000,1.216671142578125,8.886046409606934,3.924229145050049,-0.3693920075893402
1685919708688431900,1.226431884765625,8.933902740478516,3.8811583518981934,-0.3813561201095581
1685919708698192600,1.236192626953125,8.933902740478516,3.8763725757598877,-0.393320232629776
1685919708707954200,1.2459541015625,8.907581329345703,3.8356947898864746,-0.34307095408439636
1685919708717715700,1.2557158203125,9.032307624816895,3.845266103744507,-0.36699917912483215
1685919708727476500,1.2654765625,9.154341697692871,3.7971103191375732,-0.36221352219581604
1685919708737237200,1.2752373046875,9.149555206298828,3.7444684505462646,-0.36221352219581604
1685919708746998800,1.284998779296875,9.226125717163086,3.7277185916900635,-0.38614174723625183
1685919708756760300,1.29476025390625,9.178269386291504,3.7660038471221924,-0.3454637825489044
1685919708766521000,1.30452099609375,9.08255672454834,3.7540395259857178,-0.41485562920570374
1685919708776281900,1.31428173828125,9.068199157714844,3.7588253021240234,-0.41964125633239746
1685919708786043400,1.32404345703125,8.88365364074707,3.7971103191375732,-0.4746761918067932
1685919708795805000,1.333804931640625,8.862117767333984,3.8524444103240967,-0.47706902027130127
1685919708805565700,1.343565673828125,8.831010818481445,3.84765887260437,-0.481854647397995
1685919708815326500,1.353326416015625,8.77358341217041,3.85483717918396,-0.4220340847969055
1685919708825088000,1.363087890625,8.785547256469727,3.88594388961792,-0.4507479667663574
1685919708834849500,1.372849609375,8.718548774719238,3.9050865173339844,-0.4938187599182129
1685919708844610300,1.3826103515625,8.761619567871094,3.88594388961792,-0.4651049077510834
1685919708854371000,1.39237109375,8.871688842773438,3.871587038040161,-0.5177469849586487
1685919708864132600,1.402132568359375,8.809475898742676,3.82373046875,-0.5344967842102051
1685919708873894100,1.41189404296875,8.835796356201172,3.81655216217041,-0.46749773621559143
1685919708883655000,1.421655029296875,8.921937942504883,3.8261234760284424,-0.37896329164505005
1685919708893415700,1.431415771484375,8.878867149353027,3.8213376998901367,-0.3478565812110901
1685919708903177500,1.441177490234375,8.941081047058105,3.8117663860321045,-0.3454637825489044
1685919708912938800,1.450938720703125,8.970093727111816,3.8356947898864746,-0.37417763471603394
1685919708922699500,1.460699462890625,8.917152404785156,3.8572301864624023,-0.43160539865493774
1685919708932460300,1.470460205078125,8.88365364074707,3.895515203475952,-0.40289151668548584
1685919708942221800,1.480221923828125,8.833403587341309,4.0319061279296875,-0.3047857880592346
1685919708951983600,1.489983642578125,8.785547256469727,3.957728624343872,-0.24496522545814514
1685919708961744400,1.499744384765625,8.692227363586426,4.041477680206299,-0.19202402234077454
1685919708971505000,1.5095048828125,8.67308521270752,4.1036906242370605,-0.12023933976888657
1685919708981266700,1.5192666015625,8.582157135009766,4.096512317657471,-0.10588239878416061
1685919708991028200,1.5290283203125,8.551051139831543,4.086941242218018,0.006580262444913387
1685919709000789000,1.5387890625,8.63479995727539,4.1347975730896,0.11665010452270508
1685919709010549800,1.5485498046875,8.65633487701416,4.139583110809326,0.23629122972488403
1685919709020311300,1.558311279296875,8.625227928161621,4.139583110809326,0.38733816146850586
1685919709030072800,1.56807275390625,8.785547256469727,4.101297855377197,0.4375874400138855
1685919709039833600,1.57783349609375,8.924330711364746,4.082155227661133,0.4663013219833374
1685919709049594400,1.587594482421875,8.941081047058105,4.036691665649414,0.5524429082870483
1685919709059356000,1.59735595703125,8.986844062805176,4.005585193634033,0.6074778437614441
1685919709069117400,1.607117431640625,9.037093162536621,4.053441524505615,0.6888338327407837
1685919709078878200,1.616878173828125,9.084949493408203,4.012763500213623,0.6577271223068237
1685919709088639000,1.626638916015625,9.233304023742676,3.9936211109161377,0.6768696904182434
1685919709098400500,1.636400390625,9.161520004272461,3.996013879776001,0.5691927075386047
1685919709108162000,1.646162109375,9.046664237976074,3.9936211109161377,0.5763711333274841
1685919709117922800,1.6559228515625,8.941081047058105,3.9744784832000732,0.5859424471855164
1685919709127683600,1.66568359375,9.029914855957031,3.955335855484009,0.47108694911003113
1685919709137445000,1.675445068359375,9.032307624816895,4.012763500213623,0.6002993583679199
1685919709147206700,1.68520654296875,9.08255672454834,4.027120590209961,0.7079764008522034
1685919709156967400,1.694967529296875,9.07537841796875,4.024727821350098,0.7342974543571472
1685919709166728200,1.704728271484375,9.09691333770752,4.046263217926025,0.7079764008522034
1685919709176489700,1.71448974609375,9.226125717163086,4.106083869934082,0.6146563291549683
1685919709186251300,1.724251220703125,9.32183837890625,4.053441524505615,0.5380859971046448
1685919709196012000,1.734011962890625,9.443872451782227,4.156332969665527,0.3562314808368683
1685919709205772800,1.743772705078125,9.506086349487305,4.144368648529053,0.3008974492549896
1685919709215534300,1.753534423828125,9.527920722961426,4.1347975730896,0.19322042167186737
1685919709225296000,1.7632958984375,9.5231351852417,4.120440483093262,0.11665010452270508
1685919709235056600,1.773056640625,9.427123069763184,4.091726779937744,0.10229317098855972
1685919709244817400,1.7828173828125,9.326624870300293,4.187439441680908,0.16450655460357666
1685919709254579000,1.792578857421875,9.195018768310547,4.053441524505615,0.15732808411121368
1685919709264340500,1.802340576171875,9.149555206298828,4.118047714233398,0.11425728350877762
1685919709274101200,1.812101318359375,9.1112699508667,4.070191383361816,0.18843477964401245
1685919709283862000,1.821862060546875,9.017950057983398,4.048655986785889,0.2745763957500458
1685919709293623600,1.83162353515625,9.18305492401123,3.7683966159820557,0.6744768619537354
1685919709303385300,1.84138525390625,8.469695091247559,4.113262176513672,0.602692186832428
1685919709313146000,1.85114599609375,8.80469036102295,4.558626174926758,0.3200400173664093
1685919709322907000,1.860906982421875,8.704191207885742,4.347758769989014,0.47587260603904724
1685919709332668400,1.87066845703125,8.462516784667969,4.561018943786621,0.7677969932556152
1685919709342430000,1.880429931640625,8.768797874450684,4.6734819412231445,0.5883352756500244
1685919709352190700,1.890190673828125,9.017950057983398,4.66151762008667,0.6625127792358398
1685919709361951500,1.899951416015625,8.931509971618652,4.551447868347168,0.5715855360031128
1685919709371713000,1.909713134765625,8.986844062805176,4.364508628845215,0.3152543902397156
1685919709381474600,1.919474609375,9.379266738891602,4.551447868347168,0.09990034252405167
1685919709391235300,1.9292353515625,9.84855842590332,4.359723091125488,-0.26889345049858093
1685919709400996000,1.93899609375,9.956235885620117,3.9146578311920166,-0.529711127281189
1685919709410757600,1.948757568359375,10.255638122558594,3.869194269180298,-0.5057829022407532
1685919709420519200,1.958519287109375,10.188638687133789,3.7660038471221924,-0.41964125633239746
1685919709430280000,1.968280029296875,9.805487632751465,3.591327667236328,-0.4124628007411957
1685919709440040700,1.978040771484375,9.312267303466797,3.5482568740844727,-0.271286278963089
1685919709449802200,1.98780224609375,8.737690925598145,3.7851462364196777,-0.05563312768936157
1685919709459563800,1.997563720703125,8.148757934570312,3.9625144004821777,0.10229317098855972
1685919709469324500,2.007324462890625,7.622037410736084,4.012763500213623,0.2841476798057556
1685919709479085300,2.017085205078125,7.289434909820557,4.086941242218018,0.497408002614975
1685919709488846800,2.026846923828125,7.255636692047119,4.156332969665527,0.7319046258926392
1685919709498608400,2.0366083984375,7.299006462097168,4.156332969665527,0.8973084688186646
1685919709508369200,2.046369140625,7.523931503295898,4.232903480529785,0.9188438653945923
1685919709518130000,2.0561298828125,7.684250831604004,4.247260093688965,0.8706883192062378
1685919709527891500,2.065891357421875,7.969295978546143,4.275974273681641,0.6720840334892273
1685919709537653000,2.075653076171875,8.282755851745605,4.230510234832764,0.6792625188827515
1685919709547413800,2.085413818359375,8.084151268005371,4.359723091125488,0.392123818397522
1685919709557174500,2.095174560546875,8.170292854309082,4.427021026611328,0.1501496136188507
1685919709566936300,2.104936279296875,8.541479110717773,4.4389848709106445,-0.06281159073114395
1685919709576697900,2.11469775390625,8.711369514465332,4.4389848709106445,-0.048454657196998596
1685919709586458600,2.124458740234375,8.871688842773438,4.359723091125488,0.09990034252405167
1685919709596219400,2.134219482421875,9.113663673400879,4.3672003746032715,0.4375874400138855
1685919709605981000,2.14398095703125,9.386445045471191,4.3983073234558105,0.6314060688018799
1685919709615742500,2.153742431640625,9.290732383728027,4.278367042541504,0.914058268070221
1685919709625503200,2.163503173828125,9.297910690307617,4.328616142272949,0.8395816683769226
1685919709635264000,2.173263916015625,9.403194427490234,4.350151538848877,0.7534400224685669
1685919709645025500,2.183025634765625,9.508479118347168,4.3672003746032715,0.547657310962677
1685919709654787000,2.192787109375,9.159127235412598,4.4150567054748535,0.4256233274936676
1685919709664547800,2.2025478515625,9.10409164428711,4.568197727203369,0.243469700217247
1685919709674308600,2.21230859375,8.998807907104492,4.589733123779297,0.14297115802764893
1685919709684070100,2.222070068359375,8.814261436462402,4.60648250579834,0.09990034252405167
1685919709693831700,2.231831787109375,8.711369514465332,4.695017337799072,0.054436713457107544
1685919709703592400,2.241592529296875,8.720941543579102,4.776372909545898,0.08075776696205139
1685919709713353200,2.251353271484375,8.646763801574707,4.7596235275268555,0.06161518394947052
1685919709723114800,2.26111474609375,8.503194808959961,4.687838554382324,0.22911277413368225
1685919709732876300,2.270876220703125,8.486444473266602,4.685445785522461,0.32243284583091736
1685919709742637000,2.280636962890625,8.440980911254883,4.6663031578063965,0.4016951024532318
1685919709752397800,2.290397705078125,8.4529447555542,4.6663031578063965,0.3080759048461914
1685919709762159400,2.300159423828125,8.342576026916504,4.671088695526123,0.34666016697883606
1685919709771921000,2.3099208984375,8.361719131469727,4.596911430358887,0.37537404894828796
1685919709781681700,2.319681640625,8.366504669189453,4.663910388946533,0.45912283658981323
1685919709791442700,2.329442626953125,8.22293472290039,4.5323052406311035,0.5859424471855164
1685919709801204200,2.339204345703125,8.263612747192383,4.6663031578063965,0.5093721151351929
1685919709810965800,2.3489658203125,8.472087860107422,4.695017337799072,0.4375874400138855
1685919709820726500,2.3587265625,8.287541389465332,4.6663031578063965,0.40408793091773987
1685919709830487300,2.3684873046875,8.292326927185059,4.613661289215088,0.37537404894828796
1685919709840248800,2.378248779296875,8.37846851348877,4.60648250579834,0.37537404894828796
1685919709850010400,2.38801025390625,8.38564682006836,4.632803916931152,0.37537404894828796
1685919709859771100,2.397771240234375,8.493622779846191,4.656732082366943,0.361017107963562
1685919709869532000,2.407531982421875,8.632407188415527,4.6734819412231445,0.39930227398872375
1685919709879293400,2.41729345703125,8.76640510559082,4.596911430358887,0.46869412064552307
1685919709889055000,2.427054931640625,8.862117767333984,4.551447868347168,0.46869412064552307
1685919709898815700,2.436815673828125,8.950652122497559,4.572983264923096,0.4854438900947571
1685919709908576500,2.446576416015625,8.936295509338379,4.6184468269348145,0.4375874400138855
1685919709918338000,2.456338134765625,8.737690925598145,4.570590496063232,0.3729812204837799
1685919709928099600,2.466099609375,8.373682975769043,4.594518661499023,0.34187453985214233
1685919709937860400,2.4758603515625,8.218149185180664,4.630411148071289,0.29371899366378784
1685919709947621000,2.48562109375,8.14636516571045,4.65433931350708,0.19800607860088348
1685919709957382700,2.495382568359375,8.132007598876953,4.623232364654541,0.18125630915164948
1685919709967144200,2.505144287109375,8.256434440612793,4.632803916931152,0.2027917206287384
1685919709976905000,2.514905029296875,8.366504669189453,4.632803916931152,0.16929219663143158
1685919709986665700,2.524665771484375,8.409873962402344,4.616054058074951,0.1094716340303421
1685919709996427500,2.534427490234375,8.436195373535156,4.644767761230469,0.12622138857841492
1685919710006189000,2.54418896484375,8.450551986694336,4.575376033782959,0.0975075215101242
1685919710015949800,2.55394970703125,8.42423152923584,4.608875751495361,0.03290131315588951
1685919710025710600,2.563710693359375,8.38564682006836,4.594518661499023,0.06161518394947052
1685919710035472100,2.57347216796875,8.313861846923828,4.637589454650879,-0.053240302950143814
1685919710045233700,2.583233642578125,8.182256698608398,4.637589454650879,-0.12502498924732208
1685919710054994400,2.592994384765625,8.167900085449219,4.651946544647217,-0.2593221664428711
1685919710064755200,2.602755126953125,8.187042236328125,4.656732082366943,-0.2832503914833069
1685919710074516700,2.612516845703125,8.258827209472656,4.66151762008667,-0.36699917912483215
1685919710084278300,2.6222783203125,8.397610664367676,4.635196685791016,-0.38614174723625183
1685919710094039000,2.6320390625,8.421838760375977,4.6184468269348145,-0.39571303129196167
1685919710103799800,2.6417998046875,8.52472972869873,4.515555381774902,-0.3454637825489044
1685919710113561300,2.651561279296875,8.658727645874023,4.520340919494629,-0.28564319014549255
1685919710123323000,2.661322998046875,8.65633487701416,4.5323052406311035,-0.271286278963089
1685919710133083600,2.671083740234375,8.653942108154297,4.479662895202637,-0.254536509513855
1685919710142844400,2.680844482421875,8.618049621582031,4.47487735748291,-0.3646063506603241
1685919710152606000,2.69060595703125,8.460124015808105,4.496412754058838,-0.3837489187717438
1685919710162367500,2.700367431640625,8.42423152923584,4.503591537475586,-0.4627120792865753
1685919710172128500,2.71012841796875,8.34018325805664,4.5562334060668945,-0.5009972453117371
1685919710181889000,2.719888916015625,8.306683540344238,4.575376033782959,-0.4220340847969055
1685919710191650600,2.729650634765625,8.4529447555542,4.5323052406311035,-0.4866403043270111
1685919710201412400,2.739412353515625,8.53190803527832,4.4605207443237305,-0.5033900737762451
1685919710211173000,2.749173095703125,8.651549339294434,4.458127498626709,-0.4938187599182129
1685919710220933600,2.75893359375,8.632407188415527,4.462913513183594,-0.5153541564941406
1685919710230695400,2.7686953125,8.725727081298828,4.434199333190918,-0.5632106065750122
1685919710240457000,2.77845703125,8.728119850158691,4.400700092315674,-0.4914259612560272
1685919710250217700,2.7882177734375,8.713762283325195,4.371985912322998,-0.44356951117515564
1685919710259978500,2.797978515625,8.713762283325195,4.381557464599609,-0.48424747586250305
1685919710269740000,2.807739990234375,8.685049057006836,4.335794448852539,-0.5464608669281006
1685919710279501600,2.81750146484375,8.708976745605469,4.34536600112915,-0.5751747488975525
1685919710289262300,2.827262451171875,8.584549903869629,4.41266393661499,-0.5608177781105042
1685919710299023000,2.837023193359375,8.512765884399414,4.362115859985352,-0.5991029739379883
1685919710308784600,2.84678466796875,8.448159217834473,4.357329845428467,-0.651745080947876
1685919710318546200,2.856546142578125,8.390432357788086,4.350151538848877,-0.740279495716095
1685919710328307000,2.866306884765625,8.342576026916504,4.364508628845215,-0.7809575200080872
1685919710338067700,2.876067626953125,8.38564682006836,4.3983073234558105,-0.7833502888679504
1685919710347829200,2.885829345703125,8.486444473266602,4.34536600112915,-0.7618148922920227
1685919710357590800,2.8955908203125,8.553443908691406,4.333401679992676,-0.6589235067367554
1685919710367351600,2.9053515625,8.565407752990723,4.302295207977295,-0.742672324180603
1685919710377112600,2.915112548828125,8.572586059570312,4.359723091125488,-0.7283154129981995
1685919710386874000,2.9248740234375,8.481658935546875,4.3549370765686035,-0.7211369276046753
1685919710396635600,2.9346357421875,8.373682975769043,4.295116424560547,-0.7163512706756592
1685919710406396400,2.944396484375,8.26839828491211,4.232903480529785,-0.654137909412384
1685919710416157200,2.9541572265625,8.206185340881348,4.285545349121094,-0.6804589629173279
1685919710425918700,2.963918701171875,8.337790489196777,4.223331928253174,-0.709172785282135
1685919710435680300,2.97368017578125,8.34018325805664,4.180261135101318,-0.8051848411560059
1685919710445441000,2.98344091796875,8.560622215270996,4.242474555969238,-0.7594220638275146
1685919710455201800,2.993201904296875,8.54865837097168,4.275974273681641,-0.7618148922920227
1685919710464963300,3.00296337890625,8.613264083862305,4.206582069396973,-0.7498508095741272
1685919710474724900,3.012724853515625,8.639585494995117,4.261617183685303,-0.6948158740997314
1685919710484485600,3.022485595703125,8.651549339294434,4.182653903961182,-0.7043871879577637
1685919710494246400,3.032246337890625,8.708976745605469,4.2209391593933105,-0.776171863079071
1685919710504008000,3.042008056640625,8.665905952453613,4.204189300537109,-0.8267202377319336
1685919710513769500,3.05176953125,8.52472972869873,4.1970109939575195,-0.9487541913986206
1685919710523530500,3.061530517578125,8.395217895507812,4.2592244148254395,-1.0061819553375244
1685919710533291000,3.071291015625,8.4529447555542,4.180261135101318,-1.0971091985702515
1685919710543052500,3.081052490234375,8.443373680114746,4.1970109939575195,-0.9678967595100403
1685919710552814300,3.090814453125,8.572586059570312,4.146761417388916,-0.9655039310455322
1685919710562575000,3.1005751953125,8.64915657043457,4.094119548797607,-0.9487541913986206
1685919710572335900,3.1103359375,8.778368949890137,4.034298896789551,-0.9415757060050964
1685919710582097400,3.120097412109375,8.802297592163086,4.034298896789551,-0.9128618240356445
1685919710591859000,3.12985888671875,8.699405670166016,4.00319242477417,-1.0037890672683716
1685919710601619700,3.13961962890625,8.421838760375977,3.996013879776001,-1.140179991722107
1685919710611380500,3.14938037109375,8.148757934570312,4.074976921081543,-1.2382856607437134
1685919710621142000,3.15914208984375,7.8062849044799805,4.098905086517334,-1.29810631275177
1685919710630903600,3.168903564453125,7.574181079864502,4.094119548797607,-1.2167502641677856
1685919710640664300,3.178664306640625,7.387540817260742,4.1036906242370605,-1.1928220987319946
1685919710650425000,3.188425048828125,7.433004379272461,4.00319242477417,-1.1114661693572998
1685919710660186600,3.1981865234375,7.612466335296631,3.9074792861938477,-0.9774680733680725
1685919710669948200,3.2079482421875,7.834998607635498,3.76361083984375,-0.9152546525001526
1685919710679709000,3.217708984375,7.981259822845459,3.6559338569641113,-0.833898663520813
1685919710689469700,3.2274697265625,7.933403491973877,3.6104702949523926,-0.8697910308837891
1685919710699231500,3.2372314453125,7.679465293884277,3.6104702949523926,-0.9655039310455322
1685919710708993000,3.246992919921875,7.3660054206848145,3.675076484680176,-1.0660024881362915
1685919710718753800,3.25675390625,7.088139057159424,3.667897939682007,-1.2047861814498901
1685919710728514600,3.2665146484375,6.786643028259277,3.7181472778320312,-1.2789636850357056
1685919710738276000,3.276276123046875,6.506383895874023,3.722932815551758,-1.2693923711776733
1685919710748037600,3.28603759765625,6.322136402130127,3.7205400466918945,-1.317248821258545
1685919710757798400,3.29579833984375,6.173781394958496,3.7348971366882324,-1.164108157157898
1685919710767559200,3.30555908203125,6.264708995819092,3.7372899055480957,-0.8793623447418213
1685919710777320700,3.31532080078125,6.458527565002441,3.6655051708221436,-0.6062814593315125
1685919710787082200,3.325082275390625,6.839285373687744,3.70139741897583,-0.45553362369537354
1685919710796843000,3.334843017578125,7.265207767486572,3.7755749225616455,-0.2832503914833069
1685919710806603800,3.344603759765625,7.6268229484558105,3.8739798069000244,-0.393320232629776
1685919710816365300,3.354365234375,7.796713352203369,3.869194269180298,-0.7211369276046753
1685919710826126800,3.364126953125,7.883154392242432,3.8333017826080322,-0.9678967595100403
1685919710835887600,3.3738876953125,7.854440212249756,3.955335855484009,-1.290927767753601
1685919710845648400,3.3836484375,7.653144359588623,3.9912281036376953,-1.7650058269500732
1685919710855410200,3.39341015625,7.334898948669434,3.9361932277679443,-1.8032909631729126
1685919710865171700,3.403171630859375,6.841678142547607,4.65433931350708,-1.1162517070770264
1685919710874932500,3.412932373046875,6.142375946044922,4.616054058074951,-0.4387838542461395
1685919710884693200,3.422693359375,5.630311489105225,4.3310089111328125,0.3370888829231262
1685919710894454800,3.432454833984375,5.072484970092773,4.3983073234558105,1.2059825658798218
1685919710904216300,3.44221630859375,3.8560338020324707,4.59930419921875,2.084746837615967
1685919710913977000,3.45197705078125,2.5609183311462402,5.18105936050415,3.0804600715637207
1685919710923737900,3.46173779296875,1.2059825658798218,5.729314804077148,4.155435562133789
1685919710933499400,3.47149951171875,-0.3454637825489044,6.100501537322998,5.807380676269531
1685919710943261000,3.481260986328125,-2.0811574459075928,6.782754898071289,7.978867053985596
1685919710953021700,3.491021728515625,-2.708376169204712,6.4905314445495605,10.03310489654541
1685919710962782500,3.500782470703125,-1.9184455871582031,5.49721097946167,11.323434829711914
1685919710972544000,3.5105439453125,-0.14685949683189392,4.213760852813721,11.905189514160156
1685919710982305800,3.520305908203125,2.2402801513671875,2.885145902633667,11.735299110412598
1685919710992066600,3.530066650390625,3.051746129989624,1.9561325311660767,9.82702350616455
1685919711001827000,3.5398271484375,1.5242279767990112,0.7495517134666443,6.573681831359863
1685919711011588900,3.5495888671875,-2.9144580364227295,0.5988038778305054,3.8276188373565674
1685919711021350400,3.559350341796875,-7.869993686676025,1.2403794527053833,1.0289137363433838
1685919711031111200,3.569111083984375,-11.466107368469238,2.868396043777466,-1.6597216129302979
1685919711040872000,3.578871826171875,-12.342179298400879,4.620839595794678,-3.701995849609375
1685919711050633500,3.588633544921875,-10.424631118774414,5.769992828369141,-3.9508492946624756
1685919711060395000,3.59839501953125,-5.607579708099365,5.384449005126953,-1.6549359560012817
1685919711070155800,3.60815576171875,1.057328462600708,3.5865421295166016,2.2737796306610107
1685919711079916500,3.61791650390625,6.16181755065918,2.0039889812469482,5.364409446716309
1685919711089678000,3.627677978515625,5.752345561981201,-0.00687936507165432,6.020640850067139
1685919711099439600,3.637439697265625,1.2562319040298462,-1.3214362859725952,4.636692047119141
1685919711109200400,3.647200439453125,-5.219942569732666,-1.287936806678772,0.1333998590707779
1685919711118961200,3.656961181640625,-11.803793907165527,0.05054837837815285,-5.686542987823486
1685919711128723000,3.666722900390625,-16.34537124633789,1.0609177350997925,-8.155038833618164
1685919711138484500,3.676484375,-14.398810386657715,-0.1459621787071228,-5.9045891761779785
1685919711148245200,3.686245361328125,-4.564010143280029,-1.8481563329696655,0.08793623000383377
1685919711158006000,3.696006103515625,11.943474769592285,-4.694717884063721,3.7797625064849854
1685919711167767600,3.705767578125,29.48735237121582,-5.5468621253967285,5.525027275085449
1685919711177529000,3.715529052734375,39.56173324584961,-3.937987804412842,2.9201409816741943
1685919711187289900,3.725289794921875,39.62394714355469,-0.976570725440979,-3.7354953289031982
1685919711197050600,3.735050537109375,37.90021514892578,3.07417893409729,-8.8109712600708
1685919711206812200,3.744812255859375,39.64548110961914,2.7559335231781006,-18.303598403930664
1685919711216573700,3.75457373046875,36.815670013427734,2.3512473106384277,-28.186254501342773
1685919711226334500,3.76433447265625,29.362924575805664,5.49721097946167,-26.543880462646484
1685919711236095200,3.77409521484375,30.061927795410156,4.070191383361816,-21.355941772460938
1685919711245856800,3.783856689453125,38.81966018676758,1.8843477964401245,-12.9861478805542
1685919711255618600,3.79361865234375,43.05704879760742,-1.9438693523406982,-3.1752755641937256
1685919711265379300,3.80337939453125,41.520259857177734,-0.23449662327766418,2.0679969787597656
1685919711275139800,3.813139892578125,31.68276596069336,3.28983211517334,2.903391122817993
1685919711284901600,3.822901611328125,18.814464569091797,4.230510234832764,5.98235559463501
1685919711294663200,3.8326630859375,13.061521530151367,3.3831520080566406,8.809774398803711
1685919711304424000,3.842423828125,12.422338485717773,2.073380708694458,8.177471160888672
1685919711314184700,3.852184814453125,14.124532699584961,1.1255239248275757,6.300601005554199
1685919711323946200,3.8619462890625,17.073986053466797,-1.196710467338562,4.641477584838867
1685919711333707800,3.871707763671875,24.706491470336914,-2.7290141582489014,4.35673189163208
1685919711343468500,3.881468505859375,28.72613525390625,-3.4519457817077637,5.170590400695801
1685919711353229300,3.891229248046875,23.03301239013672,-2.8701908588409424,6.863213539123535
1685919711362990800,3.900990966796875,12.470194816589355,-1.1081759929656982,6.422635078430176
1685919711372752400,3.91075244140625,2.6805596351623535,0.8045865893363953,3.221935749053955
1685919711382513200,3.92051318359375,-5.188836097717285,1.7599210739135742,0.18843477964401245
1685919711392274000,3.93027392578125,-10.403095245361328,1.3624134063720703,-0.867398202419281
1685919711402035500,3.940035400390625,-9.505188941955566,-0.3326023519039154,0.24107688665390015
1685919711411797200,3.94979736328125,-3.757030725479126,-2.3243281841278076,0.7677969932556152
1685919711421558000,3.95955810546875,2.3982064723968506,-2.551945447921753,-0.13220344483852386
1685919711431318800,3.96931884765625,6.623631954193115,-0.19381862878799438,-0.7115656137466431
1685919711441080300,3.979080322265625,11.749357223510742,-1.134497046470642,-4.195216178894043
1685919711450841900,3.988841796875,15.474682807922363,-1.067497968673706,-8.775078773498535
1685919711460602600,3.9986025390625,13.044772148132324,0.04815555736422539,-12.658330917358398
1685919711470363400,4.00836328125,7.001997470855713,3.275475025177002,-11.092527389526367
1685919711480125000,4.018125,2.675773859024048,5.676672458648682,-9.17707347869873
1685919711489886500,4.027886474609375,3.3822548389434814,6.844968318939209,-7.76470947265625
1685919711499647200,4.037647216796875,5.429015636444092,5.245665550231934,-4.551746845245361
1685919711509408000,4.047407958984375,5.888736724853516,2.7415764331817627,0.5404788255691528
1685919711519169500,4.05716943359375,5.613562107086182,0.7136593461036682,4.6438703536987305
1685919711528931300,4.066931396484375,6.784250259399414,0.49591249227523804,7.088438034057617
1685919711538692000,4.076692138671875,9.33858871459961,-0.37806597352027893,8.100900650024414
1685919711548452900,4.086452880859375,13.396516799926758,-1.184746265411377,7.976474285125732
1685919711558214400,4.09621435546875,16.918453216552734,-1.9558334350585938,7.150651454925537
1685919711567976000,4.105975830078125,19.803298950195312,-2.367398977279663,6.173781394958496
1685919711577736700,4.11573681640625,21.311674118041992,-1.7234305143356323,3.753441333770752
1685919711587497500,4.12549755859375,20.71526336669922,-0.4905286431312561,-0.048454657196998596
1685919711597259000,4.135259033203125,17.466707229614258,0.4408775866031647,-2.8854451179504395
1685919711607020500,4.1450205078125,13.370195388793945,0.9266205430030823,-5.176572799682617
1685919711616781300,4.15478125,16.662120819091797,8.16401195526123,-15.629319190979004
1685919711626542000,4.1645419921875,41.544185638427734,16.703697204589844,-21.052053451538086
1685919711636303600,4.1743037109375,36.59074401855469,2.7320053577423096,-17.101802825927734
1685919711646065400,4.1840654296875,23.03061866760254,-1.6348960399627686,-8.042277336120605
1685919711655826200,4.193826171875,8.957830429077148,-1.8385851383209229,2.568096876144409
1685919711665587000,4.2035869140625,-4.564010143280029,-3.5264222621917725,7.878368377685547
1685919711675348500,4.213348388671875,-8.138288497924805,-3.6053855419158936,8.14636516571045
1685919711685110000,4.223110107421875,-4.5113677978515625,-3.0116662979125977,4.746761798858643
1685919711694870800,4.232870849609375,1.5194423198699951,-1.2903295755386353,1.404586911201477
1685919711704631600,4.242631591796875,7.559823989868164,1.6737794876098633,-3.160918712615967
1685919711714393000,4.25239306640625,16.27927017211914,5.18105936050415,-7.592426300048828
1685919711724154600,4.262154541015625,22.482362747192383,5.547460079193115,-9.24437141418457
1685919711733915400,4.271915283203125,20.29173469543457,4.594518661499023,-6.570092678070068
1685919711743676200,4.28167626953125,12.869796752929688,3.160320520401001,-2.272583246231079
1685919711753437700,4.291437744140625,6.0610198974609375,1.9369899034500122,0.5835496187210083
1685919711763199500,4.301199462890625,3.59043025970459,0.5318048596382141,1.3471591472625732
1685919711772960300,4.310960205078125,4.861617565155029,0.031405795365571976,1.558026671409607
1685919711782720800,4.320720703125,8.196614265441895,0.3568296730518341,1.2586246728897095
1685919711792482600,4.330482666015625,11.905189514160156,0.7256234884262085,0.5859424471855164
1685919711802244000,4.340244140625,14.555240631103516,0.9433703422546387,0.04486542567610741
1685919711812004900,4.3500048828125,14.42602825164795,0.7136593461036682,-0.04127619042992592
1685919711821765600,4.359765625,12.020045280456543,0.5006981492042542,-0.10827522724866867
1685919711831527200,4.369527099609375,9.238089561462402,0.31375887989997864,-0.6014958024024963
1685919711841288700,4.379288818359375,7.770392417907715,0.23958136141300201,-1.3411771059036255
1685919711851049500,4.389049560546875,7.6028947830200195,0.23001007735729218,-2.1960129737854004
1685919711860810200,4.398810302734375,8.076972961425781,0.37118661403656006,-2.904587507247925
1685919711870571800,4.40857177734375,8.692227363586426,0.7280163168907166,-3.2039895057678223
1685919711880333600,4.41833349609375,9.216554641723633,0.8859425783157349,-3.1800613403320312
1685919711890094300,4.42809423828125,9.76241683959961,0.8763712644577026,-2.9261229038238525
1685919711899855000,4.437855224609375,9.925128936767578,0.6299105882644653,-2.2677977085113525
1685919711909616600,4.44761669921875,9.810274124145508,0.41904306411743164,-1.4108680486679077
1685919711919378200,4.457378173828125,9.63081169128418,0.3281157910823822,-0.8793623447418213
1685919711929139000,4.467138916015625,9.451051712036133,0.45523449778556824,-0.7809575200080872
1685919711938899700,4.476899658203125,9.525527954101562,0.5318048596382141,-1.042074203491211
1685919711948661200,4.4866611328125,9.738489151000977,0.7208378314971924,-1.2239288091659546
1685919711958422800,4.4964228515625,9.992128372192383,0.8428717851638794,-1.0947163105010986
1685919711968183600,4.50618359375,10.140782356262207,1.0106685161590576,-0.8626125454902649
1685919711977944300,4.5159443359375,10.317851066589355,0.9481559991836548,-0.6876373887062073
1685919711987705900,4.525705810546875,10.320243835449219,0.8093722462654114,-0.3837489187717438
1685919711997467400,4.53546728515625,10.315458297729492,0.7782655358314514,-0.08673982322216034
1685919712007228400,4.545228515625,10.238887786865234,0.9409775137901306,-0.3119642436504364
1685919712016989200,4.5549892578125,9.783952713012695,0.9409775137901306,-0.9678967595100403
1685919712026750700,4.564750732421875,9.319445610046387,1.1422736644744873,-1.4324034452438354
1685919712036512300,4.57451220703125,9.072985649108887,1.2475578784942627,-1.8990038633346558
1685919712046273000,4.58427294921875,9.015557289123535,1.4246268272399902,-2.239083766937256
1685919712056033800,4.59403369140625,9.467801094055176,1.135095238685608,-2.231905221939087
1685919712065795300,4.60379541015625,9.9442720413208,0.7806583642959595,-1.664507269859314
1685919712075556900,4.613556884765625,10.336994171142578,0.6801598072052002,-1.0707881450653076
1685919712085317600,4.623317626953125,10.628918647766113,0.649053156375885,-0.5703890919685364
1685919712095078400,4.633078369140625,10.411170959472656,0.7136593461036682,-0.5751747488975525
1685919712104840000,4.64283984375,9.891630172729492,0.9218349456787109,-1.0037890672683716
1685919712114601700,4.652601806640625,9.513264656066895,1.2475578784942627,-1.4970096349716187
1685919712124362500,4.662362548828125,9.259625434875488,1.5490535497665405,-1.66929292678833
1685919712134123300,4.672123291015625,9.039485931396484,1.7048860788345337,-1.937588095664978
1685919712143884800,4.681884765625,8.732905387878418,1.6522440910339355,-1.975873351097107
1685919712153646300,4.691646240234375,8.728119850158691,1.7048860788345337,-1.7985053062438965
1685919712163407000,4.701406982421875,8.421838760375977,1.659422516822815,-2.325225353240967
1685919712173167900,4.71116796875,9.412766456604004,2.011167526245117,-3.8001015186309814
1685919712182929400,4.720929443359375,8.096115112304688,1.7982062101364136,-2.715554714202881
1685919712192691000,4.73069091796875,8.356932640075684,1.5637096166610718,-1.3797613382339478
1685919712202451700,4.74045166015625,8.994022369384766,1.3456636667251587,-0.8123632669448853
1685919712212212500,4.75021240234375,10.26042366027832,1.3336994647979736,-0.4507479667663574
1685919712221974000,4.75997412109375,11.196316719055176,1.4557334184646606,-0.5679962635040283
1685919712231735800,4.76973583984375,10.985748291015625,1.4485549926757812,-1.0827522277832031
1685919712241496600,4.77949658203125,10.50927734375,1.5490535497665405,-1.3076776266098022
1685919712251257300,4.78925732421875,9.946664810180664,1.6115660667419434,-1.7458631992340088
1685919712261019000,4.799018798828125,9.283554077148438,1.6689938306808472,-2.0476579666137695
1685919712270780400,4.808780517578125,8.558229446411133,1.872383713722229,-1.8990038633346558
1685919712280541200,4.818541259765625,8.14397144317627,1.9752750396728516,-1.6980067491531372
1685919712290302000,4.828302001953125,8.175078392028809,1.939382791519165,-1.7386847734451294
1685919712300063500,4.8380634765625,8.826225280761719,1.9657038450241089,-1.7745771408081055
1685919712309825000,4.847824951171875,9.556634902954102,1.9226330518722534,-1.664507269859314
1685919712319585800,4.857585693359375,9.946664810180664,1.9489539861679077,-1.5137593746185303
1685919712329346600,4.8673466796875,9.915557861328125,1.805384635925293,-1.3965110778808594
1685919712339108400,4.8771083984375,9.510871887207031,1.9058831930160522,-1.293320655822754
1685919712348870000,4.886869873046875,9.32183837890625,1.9130617380142212,-1.4611172676086426
1685919712358630700,4.896630615234375,9.33141040802002,1.9226330518722534,-1.5544373989105225
1685919712368391400,4.906391357421875,9.317052841186523,1.970489501953125,-1.6429718732833862
1685919712378153000,4.916153076171875,9.230911254882812,2.094916343688965,-1.5903297662734985
1685919712387914500,4.92591455078125,9.230911254882812,2.0709879398345947,-1.535294771194458
1685919712397675300,4.93567529296875,9.195018768310547,2.025524377822876,-1.5233306884765625
1685919712407436000,4.94543603515625,9.032307624816895,2.0709879398345947,-1.5807584524154663
1685919712417197600,4.955197509765625,9.0514497756958,2.0829520225524902,-1.6740785837173462
1685919712426959000,4.964958984375,9.118449211120605,2.0614166259765625,-1.7626129388809204
1685919712436720000,4.97472021484375,9.302696228027344,2.0853450298309326,-1.8535401821136475
1685919712446481000,4.98448095703125,9.398408889770508,2.0781664848327637,-1.8535401821136475
1685919712456242400,4.994242431640625,9.5231351852417,1.932204246520996,-1.6860426664352417
1685919712466004000,5.00400390625,9.578169822692871,1.939382791519165,-1.5831513404846191
1685919712475764700,5.0137646484375,9.525527954101562,1.8939191102981567,-1.6190435886383057
1685919712485525500,5.023525390625,9.427123069763184,1.9465612173080444,-1.6477575302124023
1685919712495287000,5.033287109375,9.46301555633545,1.9226330518722534,-1.5831513404846191
1685919712505048600,5.043048583984375,9.486943244934082,2.032702922821045,-1.6094722747802734
1685919712514809300,5.052809326171875,9.312267303466797,2.1287147998809814,-1.6788642406463623
1685919712524570000,5.062570068359375,9.123234748840332,2.155035972595215,-1.693221092224121
1685919712534331600,5.07233154296875,9.216554641723633,2.1092731952667236,-1.5903297662734985
1685919712544093400,5.082093505859375,9.388837814331055,2.104487419128418,-1.566401481628418
1685919712553854200,5.091854248046875,9.33141040802002,2.147857427597046,-1.6166508197784424
1685919712563615000,5.101614990234375,9.30030345916748,2.133500576019287,-1.566401481628418
1685919712573376500,5.11137646484375,9.22851848602295,2.118844509124756,-1.4467604160308838
1685919712583138000,5.121137939453125,9.16869831085205,2.202892303466797,-1.4611172676086426
1685919712592898800,5.13089892578125,9.326624870300293,2.1068804264068604,-1.597508192062378
1685919712602659600,5.14065966796875,9.489336013793945,2.1430718898773193,-1.657328724861145
1685919712612421000,5.150421142578125,9.472586631774902,2.126322031021118,-1.6429718732833862
1685919712622182700,5.1601826171875,9.508479118347168,2.195713996887207,-1.573580026626587
1685919712631943400,5.169943359375,9.41755199432373,2.1454646587371826,-1.5831513404846191
1685919712641704200,5.1797041015625,9.379266738891602,2.1598215103149414,-1.5137593746185303
1685919712651465700,5.1894658203125,9.32183837890625,2.1092731952667236,-1.32921302318573
1685919712661227500,5.1992275390625,9.2859468460083,2.1311075687408447,-1.2789636850357056
1685919712670988300,5.20898828125,9.226125717163086,2.212463617324829,-1.3052847385406494
