time,seconds_elapsed,z,y,x
1685918999645151200,0.165151123046875,-0.6231508255004883,0.05603456497192383,1.1370084285736084
1685918999654911700,0.174911865234375,-0.8497166633605957,-0.07994520664215088,0.8430870771408081
1685918999664673000,0.184673095703125,-1.1543593406677246,-0.17352867126464844,0.6595827341079712
1685918999674435000,0.19443505859375,-1.7326583862304688,-0.3470999002456665,0.6286799907684326
1685918999684196600,0.204196533203125,-2.6807475090026855,-0.39972758293151855,0.6680577993392944
1685918999693957000,0.21395703125,-3.3471531867980957,-0.2494361400604248,0.6100941300392151
1685918999703718400,0.223718505859375,-3.223100423812866,0.017345190048217773,0.5739694833755493
1685918999713480400,0.23348046875,-2.5544705390930176,0.18855690956115723,0.4576338529586792
1685918999723241700,0.24324169921875,-1.1336779594421387,0.013597726821899414,0.14676877856254578
1685918999733002500,0.25300244140625,0.16919946670532227,-0.005087137222290039,0.5002946853637695
1685918999742763800,0.262763671875,1.095198631286621,-0.36928415298461914,1.1069185733795166
1685918999752525800,0.27252587890625,2.0650439262390137,-0.5685136318206787,1.413981318473816
1685918999762287000,0.282287109375,2.9600095748901367,-0.4313870668411255,1.0920246839523315
1685918999772048000,0.2920478515625,3.2999277114868164,-0.6764153838157654,0.8573325872421265
1685918999781809200,0.30180908203125,2.9742894172668457,-1.0319430828094482,0.8252437114715576
1685918999791571200,0.3115712890625,2.365420341491699,-1.2104209661483765,0.7798417210578918
1685918999801332700,0.321332763671875,1.8055448532104492,-0.9513835310935974,-0.006937265396118164
1685918999811093200,0.33109326171875,1.2527332305908203,-0.81035315990448,-0.8845710158348083
1685918999820854500,0.3408544921875,0.910855770111084,-0.8801206350326538,-1.343555212020874
1685918999830616600,0.350616455078125,0.8754734992980957,-1.118436574935913,-1.2288272380828857
1685918999840378000,0.360378173828125,1.226393222808838,-1.0988084077835083,-1.1878812313079834
1685918999850138600,0.370138671875,1.769728183746338,-1.0413689613342285,-1.1826761960983276
1685918999859900000,0.37989990234375,2.1158056259155273,-0.8854795694351196,-1.020904541015625
1685918999869662000,0.389661865234375,2.6685423851013184,-0.7827529907226562,-0.9401342868804932
1685918999879423500,0.399423583984375,3.6092052459716797,-0.7571697235107422,-0.9835795164108276
1685918999889184000,0.40918408203125,4.629739284515381,-0.8782456517219543,-0.9946717619895935
1685918999898945300,0.4189453125,5.549829006195068,-1.0778080224990845,-1.1000685691833496
1685918999908707300,0.428707275390625,6.218649864196777,-1.3400412797927856,-1.095883846282959
1685918999918468900,0.43846875,6.653420448303223,-1.544753909111023,-1.2790151834487915
1685918999928229400,0.4482294921875,6.34067440032959,-1.4006365537643433,-1.4543473720550537
1685918999937990700,0.45799072265625,5.652802467346191,-0.9918477535247803,-1.5126163959503174
1685918999947753000,0.4677529296875,4.672097206115723,-0.5248075127601624,-1.313577651977539
1685918999957514200,0.47751416015625,3.7120609283447266,0.023501455783843994,-1.334784746170044
1685918999967274800,0.487274658203125,3.137234687805176,0.34368896484375,-1.475069284439087
1685918999977036000,0.4970361328125,2.7550764083862305,0.47148579359054565,-1.540833830833435
1685918999986798300,0.50679833984375,2.621440887451172,0.39515039324760437,-1.476981520652771
1685918999996559600,0.5165595703125,2.3584671020507812,0.1931086778640747,-1.4914822578430176
1685919000006320000,0.526320068359375,1.9710712432861328,0.07729285955429077,-1.6549214124679565
1685919000016081400,0.536081298828125,1.9557733535766602,0.04536372423171997,-1.756110429763794
1685919000025843700,0.54584375,2.3492040634155273,0.03513750433921814,-1.760447382926941
1685919000035605000,0.55560498046875,2.6674489974975586,-0.0015801489353179932,-1.434236764907837
1685919000045365500,0.565365478515625,2.6663198471069336,0.23643741011619568,-1.2042666673660278
1685919000055126800,0.575126708984375,2.5516767501831055,0.5956965088844299,-1.2735573053359985
1685919000064889000,0.58488916015625,2.4218292236328125,0.8018230199813843,-1.143249750137329
1685919000074650400,0.594650390625,2.3800668716430664,0.9729139804840088,-1.0746768712997437
1685919000084411000,0.604410888671875,2.0275182723999023,1.0354539155960083,-0.942873477935791
1685919000094172200,0.614172119140625,1.7736501693725586,1.0723381042480469,-0.969651460647583
1685919000103934500,0.6239345703125,1.9432077407836914,0.9081109762191772,-0.8747134804725647
1685919000113695700,0.63369580078125,2.063237190246582,0.6922920942306519,-0.8548919558525085
1685919000123456300,0.643456298828125,1.8010225296020508,0.6146529316902161,-0.9043818712234497
1685919000133217800,0.6532177734375,1.4903631210327148,0.5323917865753174,-0.893869161605835
1685919000142979800,0.662979736328125,1.207305908203125,0.5496935844421387,-0.9143872857093811
1685919000152741000,0.6727412109375,0.8946924209594727,0.6113065481185913,-0.7413906455039978
1685919000162501600,0.682501708984375,0.7315788269042969,0.7739967703819275,-0.5899910926818848
1685919000172263200,0.69226318359375,0.745753288269043,0.8691401481628418,-0.494246244430542
1685919000182025200,0.702025146484375,0.5030002593994141,0.931269109249115,-0.4160839319229126
1685919000191786500,0.711786376953125,0.20745086669921875,1.0498542785644531,-0.2814425230026245
1685919000201547300,0.72154736328125,-0.039066314697265625,1.0774701833724976,-0.22654730081558228
1685919000211308500,0.73130859375,-0.3930683135986328,1.0917458534240723,-0.1595001220703125
1685919000221070600,0.741070556640625,-0.5959091186523438,1.1069085597991943,-0.18864917755126953
1685919000230832000,0.75083203125,-0.6310253143310547,1.0097838640213013,-0.040015220642089844
1685919000240592600,0.760592529296875,-0.3803844451904297,1.2149856090545654,-0.24511563777923584
1685919000250354000,0.77035400390625,-0.555781364440918,1.5386841297149658,-0.5274859666824341
1685919000260116200,0.7801162109375,-0.6840715408325195,1.8598239421844482,-0.5837542414665222
1685919000269877500,0.78987744140625,-0.3609189987182617,2.4186389446258545,-0.5771917104721069
1685919000279638000,0.799637939453125,0.2038860321044922,2.9136431217193604,-0.2565643787384033
1685919000289399300,0.8093994140625,0.9693851470947266,3.2345643043518066,0.4311933219432831
1685919000299161600,0.81916162109375,1.950540542602539,3.3387537002563477,1.1700586080551147
1685919000308923000,0.8289228515625,2.603060722351074,3.0807008743286133,1.6662155389785767
1685919000318683400,0.838683349609375,2.519497871398926,2.6154630184173584,1.7452584505081177
1685919000328444700,0.848444580078125,1.7169694900512695,2.1052963733673096,1.403205156326294
1685919000338207000,0.85820703125,0.5915641784667969,1.4297688007354736,0.9535449147224426
1685919000347968300,0.86796826171875,-0.33399009704589844,0.813650906085968,0.48093509674072266
1685919000357728800,0.877728759765625,-1.1628894805908203,0.3851836919784546,-0.01316612958908081
1685919000367490300,0.887490234375,-1.6089105606079102,-0.07695364952087402,-0.3540235161781311
1685919000377252400,0.89725244140625,-1.7012004852294922,-0.3229738473892212,-0.6161799430847168
1685919000387013600,0.907013671875,-1.4891633987426758,-0.4595921039581299,-0.7284676432609558
1685919000396774400,0.9167744140625,-0.990351676940918,-0.38465917110443115,-0.771136999130249
1685919000406535700,0.92653564453125,-0.5789995193481445,-0.39131778478622437,-0.7565291523933411
1685919000416297700,0.936297607421875,0.07793998718261719,-0.3214941620826721,-0.7468291521072388
1685919000426059300,0.946059326171875,0.7155570983886719,-0.33626246452331543,-0.6454970836639404
1685919000435819800,0.95581982421875,1.050858497619629,-0.36370849609375,-0.5889259576797485
1685919000445581000,0.9655810546875,0.9574718475341797,-0.381743848323822,-0.5986217260360718
1685919000455343000,0.975343017578125,0.5939455032348633,-0.25769996643066406,-0.5850738883018494
1685919000465104600,0.985104736328125,0.09080886840820312,-0.14162033796310425,-0.5410155653953552
1685919000474865200,0.994865234375,-0.3472557067871094,-0.09470510482788086,-0.44907766580581665
1685919000484626400,1.00462646484375,-0.7902021408081055,-0.011086463928222656,-0.39198482036590576
1685919000494388700,1.014388671875,-1.0157623291015625,0.051382243633270264,-0.20973169803619385
1685919000504150000,1.02414990234375,-0.8560590744018555,0.19161689281463623,-0.18008649349212646
1685919000513910500,1.03391064453125,-1.0186738967895508,0.3627476096153259,-0.10677248239517212
1685919000523671800,1.043671875,-1.0260906219482422,0.3619033694267273,0.13827091455459595
1685919000533434000,1.05343408203125,-0.827998161315918,0.4621430039405823,0.28015759587287903
1685919000543195400,1.0631953125,-0.7296390533447266,0.6241255402565002,0.3141111731529236
1685919000552956000,1.072955810546875,-0.4808645248413086,0.8266252279281616,0.3797679841518402
1685919000562717400,1.082717529296875,-0.2892417907714844,1.0018761157989502,0.43888527154922485
1685919000572479500,1.0924794921875,-0.04969501495361328,1.191434621810913,0.4041138291358948
1685919000582240800,1.10224072265625,-0.028070449829101562,1.3452422618865967,0.3517967760562897
1685919000592001500,1.11200146484375,0.029191017150878906,1.5476069450378418,0.37107306718826294
1685919000601762800,1.1217626953125,0.21641159057617188,1.6704989671707153,0.43302643299102783
1685919000611524900,1.13152490234375,0.45171642303466797,1.8130083084106445,0.4601772427558899
1685919000621286400,1.141286376953125,0.5190181732177734,1.7749269008636475,0.3905871510505676
1685919000631047000,1.151046875,0.6523609161376953,1.6328415870666504,0.30592799186706543
1685919000640808200,1.16080810546875,0.6330022811889648,1.3639672994613647,0.1817759871482849
1685919000650570500,1.170570556640625,0.502802848815918,0.9313024878501892,0.056555867195129395
1685919000660331800,1.180331787109375,0.1844625473022461,0.6391850709915161,-0.09124505519866943
1685919000670092300,1.19009228515625,-0.13065338134765625,0.39544081687927246,-0.30826902389526367
1685919000679853600,1.199853515625,-0.532954216003418,0.2664000988006592,-0.5014147758483887
1685919000689616000,1.209615966796875,-0.8273696899414062,0.08254051208496094,-0.64350825548172
1685919000699377200,1.219377197265625,-0.977076530456543,-0.08531904220581055,-0.6884860992431641
1685919000709137700,1.2291376953125,-0.9929351806640625,-0.2254449725151062,-0.7614250183105469
1685919000718899200,1.238899169921875,-0.9710178375244141,-0.31062477827072144,-0.7566981315612793
1685919000728661200,1.2486611328125,-0.8570213317871094,-0.2611352205276489,-0.7134981751441956
1685919000738422500,1.258422607421875,-0.6920413970947266,-0.15008503198623657,-0.6113375425338745
1685919000748183000,1.26818310546875,-0.45027923583984375,0.04212695360183716,-0.4433783292770386
1685919000757944600,1.277944580078125,-0.2486438751220703,0.27032771706581116,-0.3009732961654663
1685919000767706600,1.28770654296875,-0.16028118133544922,0.5149788856506348,-0.11446535587310791
1685919000777468200,1.29746826171875,-0.08926010131835938,0.7746560573577881,0.018439114093780518
1685919000787228700,1.307228759765625,0.0856161117553711,0.9571516513824463,0.08342376351356506
1685919000796990000,1.316989990234375,0.29950428009033203,1.1900094747543335,0.2757536768913269
1685919000806752000,1.326751953125,0.47148895263671875,1.3355028629302979,0.2930661737918854
1685919000816513500,1.336513427734375,0.6566390991210938,1.4131375551223755,0.392646849155426
1685919000826274000,1.346274169921875,0.7195415496826172,1.5086359977722168,0.4091959595680237
1685919000836035300,1.356035400390625,0.5495672225952148,1.497829556465149,0.40694642066955566
1685919000845797600,1.365797607421875,0.2719879150390625,1.5118205547332764,0.3381677269935608
1685919000855559000,1.375558837890625,-0.02465534210205078,1.4296891689300537,0.3051200807094574
1685919000865319400,1.3853193359375,-0.39987850189208984,1.258411169052124,0.24014541506767273
1685919000875081000,1.3950810546875,-0.40657520294189453,1.1149016618728638,0.17206397652626038
1685919000884843000,1.404843017578125,-0.465728759765625,0.936484694480896,0.2707691788673401
1685919000894604300,1.414604248046875,-0.4722938537597656,0.7336933612823486,0.10018330812454224
1685919000904365000,1.424364990234375,-0.3387565612792969,0.5861185789108276,-0.009896516799926758
1685919000914126300,1.434126220703125,-0.24906253814697266,0.5042158365249634,-0.0666486918926239
1685919000923888400,1.443888427734375,-0.19571399688720703,0.39893537759780884,-0.15095913410186768
1685919000933650000,1.45364990234375,-0.2544364929199219,0.35776960849761963,-0.15940147638320923
1685919000943410400,1.463410400390625,-0.39833927154541016,0.2871731221675873,-0.2601996660232544
1685919000953171700,1.473171630859375,-0.004216194152832031,0.3577030301094055,-0.2359219491481781
1685919000962933800,1.482933837890625,0.05916404724121094,0.45767518877983093,0.005438357591629028
1685919000972695300,1.4926953125,-0.07718849182128906,0.644536018371582,-0.030194848775863647
1685919000982455800,1.502455810546875,-0.35280704498291016,0.6199734210968018,-0.24480843544006348
1685919000992217000,1.512217041015625,0.01755523681640625,0.7229810953140259,-0.09855541586875916
1685919001001979400,1.5219794921875,-0.016295433044433594,0.6543706059455872,-0.012302905321121216
1685919001011740700,1.53174072265625,-0.10923194885253906,0.73897385597229,-0.27845919132232666
1685919001021501200,1.541501220703125,0.8375339508056641,1.219468116760254,-0.1300210952758789
1685919001031262700,1.5512626953125,1.0695619583129883,1.450087308883667,0.17276567220687866
1685919001041024800,1.561024658203125,1.129136085510254,1.6993147134780884,0.2664441168308258
1685919001050786000,1.5707861328125,1.5189857482910156,2.056518077850342,0.702812910079956
1685919001060546800,1.580546875,1.2000932693481445,2.0653653144836426,1.23398756980896
1685919001070308000,1.59030810546875,0.7264909744262695,2.401214361190796,1.0467402935028076
1685919001080070100,1.600070068359375,0.4082622528076172,2.4955101013183594,0.8565481901168823
1685919001089831700,1.609831787109375,0.3796873092651367,2.0239837169647217,0.5928691625595093
1685919001099592200,1.61959228515625,0.7337265014648438,1.6062463521957397,0.05650681257247925
1685919001109353500,1.629353515625,1.1991043090820312,1.0684947967529297,-0.6059318780899048
1685919001119115800,1.63911572265625,1.7657842636108398,0.6888188123703003,-1.392073392868042
1685919001128877000,1.648876953125,2.276416778564453,0.2524035573005676,-2.067363977432251
1685919001138637600,1.658637451171875,2.9649477005004883,0.004627883434295654,-2.5475244522094727
1685919001148398800,1.66839892578125,3.2073593139648438,-0.2610478401184082,-2.8630971908569336
1685919001158161200,1.6781611328125,3.1232166290283203,-0.4118465185165405,-3.0422067642211914
1685919001167922400,1.68792236328125,2.524073600769043,-0.6198930144309998,-3.1094772815704346
1685919001177683000,1.697682861328125,1.5414018630981445,-0.9214009046554565,-3.032658576965332
1685919001187444500,1.707444580078125,0.30585193634033203,-1.2150946855545044,-2.9591164588928223
1685919001197206500,1.71720654296875,-1.021754264831543,-1.498885989189148,-2.7542200088500977
1685919001206968000,1.726968017578125,-1.829751968383789,-1.785435676574707,-2.6058104038238525
1685919001216728600,1.736728515625,-2.083650588989258,-1.7012015581130981,-2.224652051925659
1685919001226489900,1.74648974609375,-1.610762596130371,-1.0985770225524902,-1.5200750827789307
1685919001236252000,1.756251953125,-1.283818244934082,-1.3518264293670654,-0.8386207818984985
1685919001246013400,1.766013427734375,-0.9371376037597656,-0.9421908259391785,-0.2728967070579529
1685919001255774000,1.77577392578125,-0.772822380065918,-0.7512221932411194,0.2116406261920929
1685919001265535200,1.78553515625,-0.9535226821899414,-0.734411358833313,0.7620306611061096
1685919001275297500,1.795297607421875,-1.2106122970581055,-0.6833517551422119,1.0080451965332031
1685919001285058800,1.805058837890625,-1.5178470611572266,-0.6246868371963501,1.14689040184021
1685919001294819300,1.8148193359375,-1.589895248413086,-0.5941271781921387,1.3530603647232056
1685919001304580900,1.824580810546875,-1.5809917449951172,-0.6186115145683289,1.3983380794525146
1685919001314343000,1.834343017578125,-1.1991863250732422,-0.17807137966156006,1.4280049800872803
1685919001324104200,1.844104248046875,-0.5468578338623047,0.1692131757736206,1.4437206983566284
1685919001333864700,1.85386474609375,0.19849681854248047,0.5501507520675659,1.4241113662719727
1685919001343626200,1.863626220703125,1.365260124206543,1.0972118377685547,1.6063529253005981
1685919001353388300,1.87338818359375,2.875263214111328,1.416122555732727,1.77834153175354
1685919001363149800,1.88314990234375,3.9816818237304688,1.8807623386383057,1.9085545539855957
1685919001372910300,1.892910400390625,4.31803035736084,1.8303810358047485,1.811917781829834
1685919001382671600,1.902671630859375,4.486800193786621,1.5490264892578125,1.3118802309036255
1685919001392433700,1.91243359375,4.099383354187012,1.079758644104004,0.654415488243103
1685919001402195200,1.9221953125,3.2880373001098633,0.5775176286697388,0.011996597051620483
1685919001411955700,1.931955810546875,2.186324119567871,0.015027880668640137,-0.6115502119064331
1685919001421717000,1.941717041015625,1.1409101486206055,-0.6313279271125793,-1.1678199768066406
1685919001431479300,1.951479248046875,0.12482357025146484,-1.0743118524551392,-1.4959068298339844
1685919001441240600,1.961240478515625,-0.8602399826049805,-1.563601016998291,-1.7122644186019897
1685919001451001000,1.9710009765625,-1.6625890731811523,-1.8937013149261475,-1.8054779767990112
1685919001460762600,1.9807626953125,-2.3625431060791016,-2.1271440982818604,-1.7291481494903564
1685919001470524700,1.990524658203125,-2.909083843231201,-2.2699437141418457,-1.568118929862976
1685919001480286000,2.000285888671875,-3.220414638519287,-2.3199524879455566,-1.3320157527923584
1685919001490046700,2.010046630859375,-3.391289710998535,-2.2784616947174072,-1.0993475914001465
1685919001499808000,2.01980810546875,-3.46309757232666,-2.2015419006347656,-0.8765968084335327
1685919001509570300,2.0295703125,-3.521996021270752,-2.096017360687256,-0.7421776652336121
1685919001519331600,2.03933154296875,-3.4608325958251953,-2.01090145111084,-0.6171706318855286
1685919001529092000,2.049092041015625,-3.2040634155273438,-2.0155725479125977,-0.49107587337493896
1685919001538853400,2.058853271484375,-2.96006441116333,-1.9163353443145752,-0.3387579619884491
1685919001548615700,2.06861572265625,-2.6123757362365723,-1.8814291954040527,-0.24224653840065002
1685919001558377000,2.078376953125,-2.204744815826416,-1.7636089324951172,-0.03554157167673111
1685919001568137500,2.088137451171875,-1.799351692199707,-1.6086549758911133,0.11927703022956848
1685919001577899000,2.09789892578125,-1.388448715209961,-1.440568447113037,0.20989207923412323
1685919001587661000,2.1076611328125,-1.2596874237060547,-1.5456609725952148,0.19640929996967316
1685919001597422300,2.11742236328125,-0.7535543441772461,-1.2339346408843994,0.217072993516922
1685919001607183000,2.12718310546875,-0.3142280578613281,-1.2685558795928955,0.31330248713493347
1685919001616944400,2.1369443359375,-0.030777931213378906,-1.2743401527404785,0.38411134481430054
1685919001626706400,2.14670654296875,-0.11139678955078125,-1.0978882312774658,0.48492431640625
1685919001636468000,2.156468017578125,-0.4875192642211914,-0.6718266010284424,0.5318366289138794
1685919001646228500,2.166228515625,-0.8694696426391602,-0.12321043014526367,0.6988884210586548
1685919001655989800,2.17598974609375,-1.3216371536254883,0.4624929428100586,0.9025263786315918
1685919001665752000,2.185751953125,-1.6438727378845215,1.1041686534881592,0.9921821355819702
1685919001675513300,2.195513427734375,-1.6440539360046387,1.6158828735351562,1.0654674768447876
1685919001685273900,2.20527392578125,-1.3861885070800781,1.9897119998931885,1.1532483100891113
1685919001695035400,2.215035400390625,-1.1680355072021484,2.1877191066741943,1.2154620885849
1685919001704797400,2.22479736328125,-0.8146467208862305,2.4896042346954346,1.1819722652435303
1685919001714558700,2.234558837890625,-0.6043739318847656,2.78104305267334,1.0824851989746094
1685919001724319200,2.2443193359375,-0.44405555725097656,2.724081516265869,0.7951880097389221
1685919001734080800,2.254080810546875,-0.001888275146484375,2.678903102874756,0.43326348066329956
1685919001743842800,2.2638427734375,0.9506464004516602,3.124282121658325,0.29871129989624023
1685919001753604400,2.273604248046875,1.7430381774902344,2.9027910232543945,0.02873086929321289
1685919001763364900,2.28336474609375,2.041322708129883,2.7281494140625,-0.4043422341346741
1685919001773126100,2.293126220703125,2.249563217163086,2.4135186672210693,-0.7484163641929626
1685919001782888200,2.30288818359375,2.3398618698120117,2.1829419136047363,-1.0496082305908203
1685919001792649700,2.312649658203125,2.230393409729004,3.2335214614868164,-0.30455201864242554
1685919001802410200,2.32241015625,1.888270378112793,3.521942615509033,0.5219368934631348
1685919001812171500,2.332171630859375,1.7204923629760742,2.8411197662353516,0.6250717639923096
1685919001821933800,2.341933837890625,2.274357795715332,1.8285499811172485,0.20702339708805084
1685919001831695000,2.351695068359375,3.389179229736328,0.6524485349655151,-0.23662054538726807
1685919001841455600,2.36145556640625,2.9730682373046875,-1.0237836837768555,-0.3784545660018921
1685919001851217200,2.371217041015625,4.292667388916016,-1.4816269874572754,-1.8879961967468262
1685919001860979200,2.380979248046875,4.300409317016602,-2.152400255203247,-2.4147655963897705
1685919001870740500,2.390740478515625,4.096068382263184,-2.540186643600464,-2.5275309085845947
1685919001880501200,2.400501220703125,4.23915958404541,-2.4736571311950684,-2.6210837364196777
1685919001890262500,2.410262451171875,2.6600866317749023,-2.574216365814209,-2.346601963043213
1685919001900024600,2.420024658203125,1.6039104461669922,-2.53242826461792,-2.3920657634735107
1685919001909786000,2.4297861328125,0.058300018310546875,-2.7256646156311035,-2.0288283824920654
1685919001919546600,2.439546630859375,-1.6656646728515625,-3.0858609676361084,-1.7317900657653809
1685919001929308000,2.449307861328125,-3.351438522338867,-3.103630542755127,-1.5448957681655884
1685919001939070200,2.4590703125,-4.332363128662109,-2.920814037322998,-1.6135222911834717
1685919001948831500,2.46883154296875,-4.503355026245117,-2.7954840660095215,-1.6227965354919434
1685919001958592000,2.478592041015625,-4.750866889953613,-2.8798561096191406,-1.4243693351745605
1685919001968353500,2.488353515625,-4.562938690185547,-3.084326982498169,-1.2935572862625122
1685919001978115600,2.498115478515625,-3.8224053382873535,-3.390495538711548,-1.1931614875793457
1685919001987876900,2.507876953125,-3.118198871612549,-3.6982617378234863,-1.136898398399353
1685919001997637600,2.5176376953125,-2.689239025115967,-4.0486884117126465,-0.9966588020324707
1685919002007399000,2.52739892578125,-2.390601634979248,-4.330010414123535,-0.9741296768188477
1685919002017161000,2.537160888671875,-2.010058879852295,-4.384647369384766,-0.9695929288864136
1685919002026922500,2.546922607421875,-1.6438488960266113,-4.237748146057129,-0.7684499025344849
1685919002036683000,2.55668310546875,-1.1465845108032227,-3.9604039192199707,-0.4677046537399292
1685919002046444300,2.5664443359375,-0.6807470321655273,-3.639193296432495,-0.24950265884399414
1685919002056206600,2.57620654296875,-0.4533557891845703,-3.1373348236083984,-0.15661120414733887
1685919002065967900,2.5859677734375,-0.28945255279541016,-2.542741298675537,0.004438936710357666
1685919002075728400,2.595728271484375,0.11355018615722656,-1.8585693836212158,0.2137182652950287
1685919002085490000,2.605489990234375,0.6352682113647461,-1.1136468648910522,0.3941158950328827
1685919002095252000,2.615251953125,1.265976905822754,-0.5020737051963806,0.5397116541862488
1685919002105013200,2.62501318359375,1.8820171356201172,-0.06765174865722656,0.595240592956543
1685919002114773800,2.634773681640625,2.279435157775879,0.2224811315536499,0.5436504483222961
1685919002124535300,2.644535400390625,2.3335371017456055,0.296364426612854,0.3682982325553894
1685919002134297300,2.65429736328125,2.1652936935424805,0.1866743564605713,0.2154746651649475
1685919002144059000,2.664058837890625,1.5538387298583984,-0.0405040979385376,-0.031138628721237183
1685919002153819400,2.6738193359375,0.7820472717285156,-0.3118754029273987,-0.2392895221710205
1685919002163580700,2.68358056640625,0.026453018188476562,-0.5358466506004333,-0.4545269012451172
1685919002173343000,2.693343017578125,-0.8063526153564453,-0.7708114981651306,-0.496415913105011
1685919002183104300,2.703104248046875,-1.468414306640625,-0.9757235050201416,-0.5164804458618164
1685919002192864800,2.71286474609375,-1.889401912689209,-1.0261335372924805,-0.2894277572631836
1685919002202626300,2.722626220703125,-2.1183648109436035,-0.9540103673934937,-0.10333669185638428
1685919002212388400,2.732388427734375,-2.1945104598999023,-0.7145901322364807,0.09393399953842163
1685919002222149600,2.742149658203125,-2.1473002433776855,-0.43628209829330444,0.2800692617893219
1685919002231910100,2.75191015625,-1.83430814743042,-0.24784117937088013,0.37729331851005554
1685919002241671700,2.761671630859375,-1.573735237121582,-0.08086568117141724,0.42687106132507324
1685919002251433700,2.771433837890625,-1.2053518295288086,-0.030696749687194824,0.3438614010810852
1685919002261195300,2.7811953125,-0.7483806610107422,0.029979705810546875,0.3273003399372101
1685919002270955800,2.790955810546875,-0.3172607421875,-0.12295264005661011,0.26812484860420227
1685919002280717000,2.800717041015625,-0.13088417053222656,-0.251209020614624,0.1893463134765625
1685919002290479400,2.810479248046875,-0.037830352783203125,-0.21877610683441162,-0.018153667449951172
1685919002300240600,2.82024072265625,0.15783405303955078,-0.17069852352142334,-0.07212883234024048
1685919002310001200,2.830001220703125,0.28637123107910156,-0.08726054430007935,0.0319039523601532
1685919002319762400,2.839762451171875,0.5198259353637695,0.13016152381896973,0.3141382038593292
1685919002329524700,2.849524658203125,0.6813488006591797,0.49265342950820923,0.6798081994056702
1685919002339286000,2.8592861328125,0.6591520309448242,0.8478024005889893,1.1873619556427002
1685919002349046500,2.869046630859375,0.6088352203369141,1.4373995065689087,1.6270970106124878
1685919002358808000,2.87880810546875,0.6566934585571289,1.8151018619537354,2.0365793704986572
1685919002368570000,2.888570068359375,0.6615419387817383,2.1026406288146973,2.3246161937713623
1685919002378331400,2.898331298828125,1.0624818801879883,2.280337333679199,2.572728157043457
1685919002388092200,2.908092041015625,1.4216346740722656,2.1087541580200195,2.6517860889434814
1685919002397853400,2.917853515625,1.7728919982910156,2.0861361026763916,2.262139320373535
1685919002407615500,2.927615478515625,1.8444232940673828,1.8834940195083618,1.7714437246322632
1685919002417377000,2.937376953125,1.716050148010254,1.641768217086792,1.1277391910552979
1685919002427137500,2.947137451171875,1.5100059509277344,1.4379104375839233,0.36730897426605225
1685919002436898800,2.95689892578125,1.3551959991455078,1.0141689777374268,-0.3899760842323303
1685919002446661000,2.9666611328125,1.4111175537109375,0.41998958587646484,-0.9908052086830139
1685919002456422400,2.97642236328125,1.4764270782470703,-0.0261533260345459,-1.1935701370239258
1685919002466183000,2.986182861328125,1.2145233154296875,-0.20469146966934204,-1.3744235038757324
1685919002475944400,2.9959443359375,1.0628833770751953,-0.09427326917648315,-1.69697105884552
1685919002485706500,3.00570654296875,1.1044082641601562,-0.14369237422943115,-1.734656572341919
1685919002495467800,3.0154677734375,1.4577150344848633,-0.47197452187538147,-1.7919222116470337
1685919002505228500,3.025228515625,1.8594532012939453,-0.44686585664749146,-1.8413619995117188
1685919002514989800,3.03498974609375,2.459954261779785,-0.4682469964027405,-2.0767934322357178
1685919002524752000,3.044751953125,2.970059394836426,-0.4521983563899994,-2.2624824047088623
1685919002534513400,3.054513427734375,3.5717601776123047,-0.49398374557495117,-2.5530660152435303
1685919002544274000,3.06427392578125,3.761667251586914,-0.6670753955841064,-2.78839111328125
1685919002554035200,3.07403515625,3.3888072967529297,-0.7589232325553894,-2.950777292251587
1685919002563797500,3.083797607421875,2.6104049682617188,-0.9290302991867065,-3.093074321746826
1685919002573558800,3.093558837890625,1.52593994140625,-1.1742503643035889,-3.170117139816284
1685919002583319300,3.1033193359375,0.32291507720947266,-1.3546545505523682,-3.0825366973876953
1685919002593080800,3.113080810546875,-0.8451337814331055,-1.5137555599212646,-2.8404629230499268
1685919002602843000,3.1228427734375,-1.8111000061035156,-1.7488534450531006,-2.437110424041748
1685919002612604200,3.132604248046875,-2.4994778633117676,-2.109980583190918,-1.9875632524490356
1685919002622365000,3.142364990234375,-3.1431803703308105,-2.4800477027893066,-1.5010727643966675
1685919002632126200,3.152126220703125,-3.7194108963012695,-2.783703327178955,-0.8769205808639526
1685919002641888300,3.16188818359375,-4.170160293579102,-3.05608868598938,-0.3015906810760498
1685919002651649800,3.17164990234375,-4.46174955368042,-3.236976385116577,0.3498251438140869
1685919002661410300,3.181410400390625,-4.5865936279296875,-3.3900609016418457,0.9641158580780029
1685919002671171600,3.191171630859375,-4.162426948547363,-3.2992804050445557,1.4594870805740356
1685919002680934000,3.200933837890625,-3.20120906829834,-2.944061517715454,1.7913141250610352
1685919002690695200,3.210695068359375,-1.794459342956543,-2.185767889022827,2.1976046562194824
1685919002700455700,3.22045556640625,-0.3044767379760742,-1.2684314250946045,2.464566469192505
1685919002710217200,3.23021728515625,1.3704242706298828,0.11728560924530029,3.0391428470611572
1685919002719979300,3.239979248046875,3.1999387741088867,1.3095113039016724,3.627413749694824
1685919002729740500,3.249740478515625,4.850550651550293,2.1982645988464355,4.141399383544922
1685919002739501000,3.2595009765625,6.237814903259277,2.49252986907959,4.3791656494140625
1685919002749262600,3.2692626953125,6.743069648742676,2.448338508605957,4.279523849487305
1685919002759024600,3.279024658203125,6.255363464355469,2.1126744747161865,3.7991394996643066
1685919002768786200,3.2887861328125,4.942829132080078,1.477056860923767,3.0656604766845703
1685919002778546700,3.298546630859375,3.223221778869629,0.7398442625999451,2.368269443511963
1685919002788308000,3.308307861328125,1.4792556762695312,0.0375441312789917,1.7107316255569458
1685919002798070300,3.3180703125,-0.11540412902832031,-0.521571695804596,1.1849186420440674
1685919002807831600,3.32783154296875,-1.3807449340820312,-1.018327236175537,0.6758638024330139
1685919002817592000,3.337592041015625,-2.29514741897583,-1.3461146354675293,0.264784574508667
1685919002827353300,3.347353271484375,-2.839383602142334,-1.5726624727249146,0.01393437385559082
1685919002837115600,3.35711572265625,-3.1897549629211426,-1.7782419919967651,-0.0663709044456482
1685919002846877000,3.366876953125,-3.392674446105957,-1.9591591358184814,-0.2046329379081726
1685919002856637400,3.376637451171875,-3.5061073303222656,-2.1187682151794434,-0.28651106357574463
1685919002866399000,3.38639892578125,-3.4565138816833496,-2.1609320640563965,-0.40466344356536865
1685919002876161000,3.3961611328125,-3.4591803550720215,-2.112575054168701,-0.4556790590286255
1685919002885922300,3.40592236328125,-3.2322793006896973,-2.0511436462402344,-0.46663498878479004
1685919002895683000,3.41568310546875,-2.8933939933776855,-2.043840169906616,-0.4254709482192993
1685919002905444400,3.4254443359375,-2.6332292556762695,-2.040578842163086,-0.35178911685943604
1685919002915206700,3.43520654296875,-2.6395230293273926,-2.0188791751861572,-0.311535120010376
1685919002924968000,3.444968017578125,-2.758660316467285,-1.9672105312347412,-0.21531128883361816
1685919002934728400,3.454728515625,-2.7783942222595215,-1.7862637042999268,-0.1434025764465332
1685919002944489700,3.46448974609375,-2.8189377784729004,-1.7380975484848022,-0.09575939178466797
1685919002954252000,3.474251953125,-2.6682143211364746,-1.6140720844268799,0.027278661727905273
1685919002964013300,3.484013427734375,-2.1933789253234863,-1.3348585367202759,0.24397456645965576
1685919002973773800,3.49377392578125,-1.4858999252319336,-0.9089665412902832,0.5040878057479858
1685919002983535400,3.503535400390625,-0.7603254318237305,-0.32290971279144287,0.8755559921264648
1685919002993297400,3.51329736328125,-0.09898662567138672,0.3633613586425781,1.2743176221847534
1685919003003059000,3.523058837890625,0.4659395217895508,1.3640977144241333,1.7728832960128784
1685919003012819500,3.5328193359375,1.0261344909667969,2.432527542114258,2.4306752681732178
1685919003022580700,3.542580810546875,1.4554595947265625,3.401334285736084,3.095271110534668
1685919003032342800,3.5523427734375,1.5417671203613281,4.229142665863037,3.4925265312194824
1685919003042104300,3.562104248046875,1.4165840148925781,4.702312469482422,3.5683584213256836
1685919003051864800,3.57186474609375,1.446629524230957,4.560513973236084,3.273575782775879
1685919003061626000,3.581626220703125,1.5967111587524414,4.0511932373046875,2.7036266326904297
1685919003071388400,3.591388427734375,1.8712387084960938,3.4807801246643066,1.9331318140029907
1685919003081149700,3.601149658203125,2.1064157485961914,2.9979519844055176,1.3638548851013184
1685919003090910200,3.61091015625,2.459042549133301,2.768501043319702,1.0034589767456055
1685919003100671700,3.620671630859375,2.815267562866211,2.7442362308502197,0.6873427033424377
1685919003110433800,3.630433837890625,2.7722816467285156,2.8335161209106445,0.4073842465877533
1685919003120195000,3.640195068359375,2.4335756301879883,3.128467559814453,0.41617804765701294
1685919003129955800,3.649955810546875,2.39481258392334,2.8951144218444824,0.9873816967010498
1685919003139717000,3.659717041015625,2.502387046813965,1.9799901247024536,1.182085633277893
1685919003149479400,3.6694794921875,2.7810592651367188,0.6488049030303955,1.046374797821045
1685919003159240700,3.67924072265625,3.1687164306640625,-0.8380317091941833,0.6316683292388916
1685919003169001200,3.689001220703125,3.5023422241210938,-2.0699777603149414,-0.002598702907562256
1685919003178762500,3.698762451171875,3.547562599182129,-2.813430070877075,-0.967180073261261
1685919003188524800,3.70852490234375,3.396735191345215,-3.187561273574829,-1.7438035011291504
1685919003198286000,3.7182861328125,3.32509708404541,-3.402519941329956,-2.0674424171447754
1685919003208046600,3.728046630859375,3.084714889526367,-3.4762418270111084,-1.8826019763946533
1685919003217808100,3.73780810546875,2.4862403869628906,-3.5680346488952637,-1.4309451580047607
1685919003227570200,3.747570068359375,1.352320671081543,-3.3172640800476074,-0.7715487480163574
1685919003237331500,3.75733154296875,-0.0891265869140625,-2.993729591369629,-0.3023245930671692
1685919003247092200,3.76709228515625,-1.5520095825195312,-2.7584915161132812,0.15225887298583984
1685919003256853500,3.776853515625,-2.882713794708252,-2.3912196159362793,0.500474750995636
1685919003266615600,3.786615478515625,-3.947425365447998,-2.1003074645996094,0.6964112520217896
1685919003276377000,3.796377197265625,-4.803272724151611,-1.981987714767456,0.7498053312301636
1685919003286137600,3.8061376953125,-5.325521945953369,-1.9619895219802856,0.7825387716293335
1685919003295899000,3.81589892578125,-5.425724029541016,-2.1874051094055176,0.8673906326293945
1685919003305661200,3.8256611328125,-5.141510009765625,-2.512451648712158,0.9743335247039795
1685919003315422500,3.83542236328125,-4.72702169418335,-2.9721968173980713,1.057440996170044
1685919003325183000,3.845182861328125,-4.000711917877197,-3.284453868865967,1.1278403997421265
1685919003334944500,3.854944580078125,-3.301577091217041,-3.370565891265869,1.1949760913848877
1685919003344706600,3.86470654296875,-2.6714539527893066,-3.3245158195495605,1.2385145425796509
1685919003354467800,3.8744677734375,-2.202486991882324,-3.1633596420288086,1.242427110671997
1685919003364228600,3.884228515625,-1.7697501182556152,-2.937633991241455,1.2457287311553955
1685919003373990000,3.893989990234375,-1.4759674072265625,-2.5705151557922363,1.2751165628433228
1685919003383752000,3.903751953125,-1.036940574645996,-2.1391913890838623,1.298662781715393
1685919003393513500,3.913513427734375,-0.40062522888183594,-1.5296175479888916,1.424796462059021
1685919003403274000,3.92327392578125,0.4329833984375,-0.692101001739502,1.617560863494873
1685919003413035300,3.93303515625,1.2900371551513672,0.1445389986038208,1.793137788772583
1685919003422797600,3.942797607421875,2.054755210876465,0.8683071136474609,1.8471440076828003
1685919003432558800,3.952558837890625,2.549443244934082,1.4018967151641846,1.7168530225753784
1685919003442319400,3.9623193359375,2.7659454345703125,1.5150198936462402,1.6042771339416504
1685919003452081000,3.972080810546875,2.9104528427124023,1.1670799255371094,1.3105225563049316
1685919003461843000,3.981843017578125,2.584437370300293,0.5697689056396484,0.8654131293296814
1685919003471604200,3.991604248046875,1.9109783172607422,0.026676177978515625,0.36970001459121704
1685919003481365000,4.001364990234375,0.9339132308959961,-0.4010545611381531,-0.024415791034698486
1685919003491126300,4.011126220703125,0.10245132446289062,-0.8199245929718018,-0.27971816062927246
1685919003500888300,4.020888427734375,-0.7086849212646484,-0.9373881816864014,-0.5374990105628967
1685919003510649900,4.03064990234375,-1.4738969802856445,-0.8610360622406006,-0.6586259007453918
1685919003520410400,4.040410400390625,-2.148642063140869,-0.5932906270027161,-0.6126018762588501
1685919003530171600,4.050171630859375,-2.4332146644592285,-0.2647177577018738,-0.5441019535064697
1685919003539934000,4.059933837890625,-2.410521984100342,-0.03980827331542969,-0.35164278745651245
1685919003549695200,4.0696953125,-2.396841526031494,0.19678449630737305,-0.2116755247116089
1685919003559455700,4.079455810546875,-2.212998867034912,0.4213634729385376,-0.14958149194717407
1685919003569217300,4.08921728515625,-1.785285472869873,0.5561856031417847,-0.0465317964553833
1685919003578979300,4.098979248046875,-1.261962890625,0.6038690805435181,0.02868121862411499
1685919003588740600,4.10874072265625,-0.7118825912475586,0.5739522576332092,0.09283202886581421
1685919003598501400,4.11850146484375,-0.0820159912109375,0.5208138823509216,0.15701937675476074
1685919003608262700,4.1282626953125,0.3797035217285156,0.5552645325660706,0.17610269784927368
1685919003618024700,4.138024658203125,0.6358556747436523,0.6586620807647705,0.24657976627349854
1685919003627786200,4.1477861328125,0.4791698455810547,0.8544178009033203,0.2955564856529236
1685919003637546800,4.157546630859375,0.33775806427001953,1.1536364555358887,0.40578219294548035
1685919003647308000,4.16730810546875,0.4663562774658203,1.3565285205841064,0.5538268089294434
1685919003657070300,4.1770703125,0.6729249954223633,1.5276525020599365,0.709774911403656
1685919003666831600,4.18683154296875,1.0003547668457031,1.6313791275024414,0.9097458124160767
1685919003676592000,4.196592041015625,1.3889131546020508,1.6617945432662964,1.1131784915924072
1685919003686353400,4.206353515625,1.841252326965332,1.8527300357818604,1.3374141454696655
1685919003696115700,4.21611572265625,2.0902271270751953,1.814505696296692,1.404803991317749
1685919003705877000,4.225876953125,2.086531639099121,1.7005281448364258,1.3397767543792725
1685919003715637800,4.2356376953125,2.1316213607788086,1.5409170389175415,1.1915818452835083
1685919003725399000,4.24539892578125,2.1368417739868164,2.137801170349121,1.2224113941192627
1685919003735161000,4.2551611328125,2.718295097351074,2.6868019104003906,1.3228490352630615
1685919003744922600,4.264922607421875,2.437082290649414,1.709484338760376,0.7050476670265198
1685919003754683100,4.27468310546875,1.5969085693359375,0.6524670124053955,0.5350146889686584
1685919003764444400,4.2844443359375,1.714681625366211,0.024042069911956787,0.011424839496612549
1685919003774206700,4.294206787109375,1.251866340637207,-0.737499475479126,0.22161978483200073
1685919003783968000,4.303968017578125,0.8972463607788086,-1.5956315994262695,0.3219447135925293
1685919003793728500,4.313728515625,1.0412063598632812,-2.257251262664795,0.5383052825927734
1685919003803490000,4.323489990234375,1.7537212371826172,-2.061598777770996,0.06948122382164001
1685919003813252000,4.333252197265625,2.41070556640625,-1.7398395538330078,-0.5080665946006775
1685919003823013400,4.343013427734375,3.0350189208984375,-1.4450933933258057,-1.2150373458862305
1685919003832774000,4.35277392578125,3.780583381652832,-1.2916438579559326,-1.8731410503387451
1685919003842535400,4.362535400390625,4.065189361572266,-1.2682604789733887,-2.428231716156006
1685919003852297500,4.37229736328125,3.7394046783447266,-1.5021990537643433,-2.3760440349578857
1685919003862059000,4.38205908203125,2.835020065307617,-1.7325531244277954,-2.0511457920074463
1685919003871819500,4.391819580078125,1.489461898803711,-1.7042641639709473,-1.80167555809021
1685919003881580800,4.401580810546875,0.3271512985229492,-1.7445812225341797,-1.2280230522155762
1685919003891343000,4.411343017578125,-0.6382637023925781,-1.434088945388794,-0.9602458477020264
1685919003901104400,4.4211044921875,-1.4881315231323242,-1.2724095582962036,-0.4520754814147949
1685919003910865000,4.430864990234375,-2.37086820602417,-1.2493412494659424,0.5981093645095825
1685919003920626200,4.440626220703125,-2.4635043144226074,-1.543778896331787,1.4981253147125244
1685919003930388500,4.450388427734375,-2.9376282691955566,-2.0622646808624268,2.345521926879883
1685919003940149800,4.460149658203125,-3.0908217430114746,-2.214618444442749,2.9349422454833984
1685919003949910300,4.46991015625,-2.3144612312316895,-2.2293198108673096,3.2269647121429443
1685919003959671800,4.479671875,-1.43267822265625,-2.3051223754882812,3.170743227005005
1685919003969433900,4.489433837890625,-0.8267030715942383,-1.9022181034088135,2.975247859954834
1685919003979195400,4.4991953125,-0.21599197387695312,-1.0089926719665527,2.932211399078369
1685919003988956000,4.508955810546875,0.5903968811035156,0.010165691375732422,2.957660436630249
1685919003998717200,4.51871728515625,2.04117488861084,1.1735728979110718,2.8454580307006836
1685919004008479200,4.528479248046875,3.142210006713867,2.2159318923950195,2.9228718280792236
1685919004018240800,4.53824072265625,3.4969825744628906,2.832672119140625,2.9075894355773926
1685919004028001300,4.548001220703125,3.473705291748047,2.788917064666748,2.583578109741211
1685919004037762600,4.557762451171875,2.9137535095214844,2.1659679412841797,1.9482321739196777
1685919004047524900,4.56752490234375,2.6348037719726562,1.724784016609192,1.1341397762298584
1685919004057286100,4.5772861328125,1.5789718627929688,0.7781329154968262,0.48935380578041077
1685919004067046700,4.587046630859375,0.21194744110107422,-0.2713790535926819,-0.07292866706848145
1685919004076808200,4.59680810546875,-1.048628807067871,-1.0925774574279785,-0.5648183822631836
1685919004086570200,4.6065703125,-2.318877696990967,-1.8511528968811035,-0.9929282665252686
1685919004096331500,4.61633154296875,-3.3518314361572266,-2.369058609008789,-1.442469835281372
1685919004106092300,4.62609228515625,-3.8725595474243164,-2.5724258422851562,-1.6426855325698853
1685919004115853600,4.635853515625,-3.919562816619873,-2.545048952102661,-1.4747869968414307
1685919004125615900,4.645615966796875,-3.7641119956970215,-2.5020751953125,-1.0657804012298584
1685919004135377200,4.655377197265625,-3.7307567596435547,-2.3768181800842285,-0.7021021842956543
1685919004145137700,4.6651376953125,-3.620323657989502,-2.2278096675872803,-0.41584718227386475
1685919004154899000,4.67489892578125,-3.556833267211914,-2.2383341789245605,-0.2792208194732666
1685919004164661200,4.6846611328125,-3.533080577850342,-2.1954140663146973,-0.1797327995300293
1685919004174422500,4.694422607421875,-3.375030994415283,-2.159386157989502,-0.03553915023803711
1685919004184183000,4.70418310546875,-3.2288413047790527,-2.161278486251831,-0.001500248908996582
1685919004193944600,4.713944580078125,-3.1066246032714844,-2.086852550506592,0.07459878921508789
1685919004203706600,4.72370654296875,-3.077577590942383,-1.832525372505188,-0.030601143836975098
1685919004213468200,4.73346826171875,-3.040912628173828,-1.4149398803710938,-0.0379178524017334
1685919004223228700,4.743228759765625,-2.8675756454467773,-0.9422953724861145,0.00782155990600586
1685919004232990000,4.752989990234375,-2.466979503631592,-0.4913593530654907,0.14881443977355957
1685919004242752000,4.762751953125,-2.0661349296569824,0.031326889991760254,0.2775331735610962
1685919004252513500,4.772513427734375,-1.423476219177246,0.675731897354126,0.5211179256439209
1685919004262274000,4.782274169921875,-0.8089475631713867,1.5039548873901367,0.7544951438903809
1685919004272035300,4.792035400390625,-0.23138046264648438,2.581749439239502,1.0450549125671387
1685919004281797600,4.801797607421875,0.34537220001220703,4.2063822746276855,1.6608142852783203
1685919004291559000,4.811558837890625,1.0239181518554688,5.654069423675537,2.7552695274353027
1685919004301319400,4.8213193359375,1.6820917129516602,6.456944465637207,3.7290263175964355
1685919004311081000,4.8310810546875,2.3648242950439453,6.3935651779174805,3.7437307834625244
1685919004320843000,4.840843017578125,2.999444007873535,5.614544868469238,3.022702932357788
1685919004330604300,4.850604248046875,3.1986894607543945,4.5267109870910645,1.9142751693725586
1685919004340365000,4.860364990234375,3.1056528091430664,3.55433988571167,0.8453928232192993
1685919004350126300,4.870126220703125,3.379551887512207,2.8298301696777344,-0.0786450207233429
1685919004359888600,4.879888671875,3.693389892578125,2.7303829193115234,-0.5928332209587097
1685919004369650000,4.88964990234375,3.7127208709716797,2.730412721633911,-0.24427330493927002
1685919004379410400,4.899410400390625,3.687384605407715,2.594128370285034,0.9926700592041016
1685919004389171700,4.909171630859375,4.859959602355957,2.960434675216675,1.5980031490325928
1685919004398934000,4.91893408203125,5.61752986907959,2.0441832542419434,2.1762900352478027
1685919004408695300,4.9286953125,6.229792594909668,0.9330000877380371,2.3471429347991943
1685919004418455800,4.938455810546875,6.403167724609375,-0.3443393111228943,1.63633131980896
1685919004428217300,4.94821728515625,4.911386489868164,-2.151228904724121,0.37766677141189575
1685919004437979400,4.9579794921875,4.476284027099609,-2.4424192905426025,-1.2848161458969116
1685919004447741000,4.967740966796875,3.6164016723632812,-3.1786601543426514,-1.6923036575317383
1685919004457501400,4.97750146484375,1.2589635848999023,-3.7593870162963867,-1.8354415893554688
1685919004467262700,4.9872626953125,-0.1563119888305664,-4.002783298492432,-2.2252116203308105
1685919004477024800,4.997024658203125,-0.7570466995239258,-4.041372299194336,-2.260411500930786
1685919004486786300,5.006786376953125,-1.5344486236572266,-4.027433395385742,-1.5839974880218506
1685919004496546800,5.016546875,-2.051180839538574,-3.8100619316101074,-0.6993327736854553
1685919004506308000,5.02630810546875,-2.5946145057678223,-3.3689234256744385,0.009873509407043457
1685919004516070400,5.0360703125,-3.362423896789551,-2.9344894886016846,0.574884295463562
1685919004525831700,5.045831787109375,-4.032071590423584,-2.6048943996429443,0.8004499077796936
1685919004535592200,5.05559228515625,-4.636213302612305,-2.705543041229248,0.8412200212478638
1685919004545353700,5.065353759765625,-5.18138313293457,-3.0941455364227295,0.906679093837738
1685919004555115800,5.07511572265625,-5.480913162231445,-3.5611329078674316,0.8074663877487183
1685919004564877000,5.084876953125,-5.566039085388184,-3.796910285949707,0.6366820335388184
1685919004574637800,5.094637939453125,-5.359853267669678,-3.721635103225708,0.6497032642364502
1685919004584399000,5.104399169921875,-4.70365047454834,-3.4315385818481445,0.9856519103050232
1685919004594161400,5.114161376953125,-3.7673444747924805,-3.0913543701171875,1.312872052192688
1685919004603922700,5.123922607421875,-3.113368034362793,-2.5197482109069824,1.7873647212982178
1685919004613683200,5.13368310546875,-2.2478137016296387,-1.8596827983856201,2.238572120666504
1685919004623444500,5.143444580078125,-1.1607799530029297,-0.4934980869293213,2.845654010772705
1685919004633206800,5.153206787109375,-0.2528038024902344,1.077714443206787,3.726996421813965
1685919004642968000,5.162968017578125,0.7423334121704102,2.3343429565429688,4.374185562133789
1685919004652728600,5.172728515625,1.6389961242675781,2.857542037963867,4.680904388427734
1685919004662490000,5.182489990234375,2.4749841690063477,2.4522509574890137,4.263894557952881
1685919004672252200,5.192252197265625,3.2572021484375,1.3303587436676025,3.1800742149353027
1685919004682013700,5.202013671875,3.364151954650879,-0.10964059829711914,1.7141132354736328
1685919004691774200,5.211774169921875,2.822258949279785,-1.3845221996307373,0.2696342170238495
1685919004701535500,5.221535400390625,1.6542549133300781,-2.2175021171569824,-0.8144540786743164
1685919004711297500,5.231297607421875,0.45024681091308594,-2.5743680000305176,-1.533498764038086
1685919004721059000,5.24105908203125,-0.6481647491455078,-2.5460076332092285,-1.791756272315979
1685919004730819600,5.250819580078125,-1.6021900177001953,-2.350142002105713,-1.907588005065918
1685919004740580900,5.260580810546875,-2.2866969108581543,-1.987356424331665,-1.8566821813583374
1685919004750343200,5.27034326171875,-2.7629313468933105,-1.5861539840698242,-1.6728532314300537
1685919004760104400,5.2801044921875,-2.8266687393188477,-1.215742826461792,-1.4760463237762451
1685919004769865000,5.289864990234375,-2.615300178527832,-0.8753330707550049,-1.3017100095748901
1685919004779626500,5.29962646484375,-1.981492519378662,-0.6445352435112,-1.1033469438552856
1685919004789388500,5.309388427734375,-1.3604297637939453,-0.4492526054382324,-0.9370193481445312
1685919004799149800,5.31914990234375,-0.6865968704223633,-0.2507789731025696,-0.7707964181900024
1685919004808910600,5.32891064453125,0.21488666534423828,-0.017331361770629883,-0.6655837297439575
1685919004818671900,5.338671875,0.9786062240600586,0.2972103953361511,-0.42795491218566895
1685919004828434000,5.348433837890625,1.3597049713134766,0.8730689883232117,-0.11824357509613037
1685919004838195500,5.358195556640625,1.528803825378418,1.6285333633422852,0.32754969596862793
1685919004847956000,5.3679560546875,1.777395248413086,2.3486790657043457,0.7793141603469849
1685919004857717200,5.37771728515625,2.004612922668457,2.6634788513183594,1.2000246047973633
1685919004867479600,5.3874794921875,2.1436824798583984,2.758497476577759,1.4844728708267212
1685919004877240800,5.39724072265625,2.1376285552978516,2.55574893951416,1.561343789100647
1685919004887001300,5.40700146484375,2.2517318725585938,2.11521053314209,1.4162687063217163
1685919004896763000,5.416762939453125,2.1773481369018555,1.5396287441253662,1.1598416566848755
1685919004906525000,5.42652490234375,1.6831779479980469,1.1813695430755615,0.8772902488708496
1685919004916286200,5.4362861328125,1.2714385986328125,1.034955382347107,0.6902995109558105
1685919004926047000,5.446046875,0.8583192825317383,1.016839861869812,0.6805232763290405
1685919004935808300,5.455808349609375,0.5153770446777344,0.9972783923149109,0.5177037715911865
1685919004945570300,5.4655703125,0.3186454772949219,0.9741244316101074,0.1935262680053711
1685919004955331800,5.475331787109375,0.34418773651123047,0.8332512378692627,-0.08323097229003906
1685919004965092400,5.48509228515625,0.4982290267944336,0.7831180691719055,-0.23387455940246582
1685919004974853600,5.494853515625,0.9141244888305664,0.6650002002716064,-0.3231508731842041
1685919004984616000,5.504615966796875,1.242995262145996,0.5090049505233765,-0.33800625801086426
1685919004994377200,5.514377197265625,1.6763896942138672,0.2568584382534027,-0.3464798927307129
1685919005004137700,5.5241376953125,1.9827260971069336,0.1492849588394165,-0.08514165878295898
1685919005013899300,5.533899169921875,1.654189109802246,0.4302268922328949,0.5985027551651001
1685919005023661300,5.543661376953125,0.9291400909423828,-0.11360800266265869,1.0395872592926025
1685919005033422600,5.553422607421875,0.6582708358764648,-1.3832981586456299,0.8847798109054565
1685919005043183400,5.563183349609375,0.4192657470703125,-2.2466483116149902,0.6766176223754883
1685919005052944600,5.572944580078125,0.3378896713256836,-2.483323574066162,0.05630218982696533
1685919005062706700,5.582706787109375,0.7876663208007812,-2.292015790939331,-1.165274739265442
1685919005072468200,5.59246826171875,1.7090425491333008,-2.1090502738952637,-2.554719924926758
1685919005082228700,5.602228759765625,2.8951520919799805,-1.8755327463150024,-3.5442681312561035
1685919005091990000,5.611989990234375,3.942279815673828,-1.808774709701538,-4.225261688232422
1685919005101752300,5.62175244140625,3.9741058349609375,-1.8238366842269897,-4.459371089935303
1685919005111513600,5.631513671875,3.088557243347168,-1.9291685819625854,-4.137394905090332
1685919005121274000,5.641274169921875,1.7907018661499023,-1.8357856273651123,-3.2265586853027344
1685919005131035600,5.65103564453125,0.5743198394775391,-1.8188902139663696,-2.006758689880371
1685919005140797700,5.660797607421875,-0.6848201751708984,-1.8737725019454956,-0.862183690071106
1685919005150559000,5.67055908203125,-1.8606595993041992,-2.1449031829833984,0.13498258590698242
1685919005160319700,5.68031982421875,-2.928501605987549,-2.3464746475219727,0.9952007532119751
1685919005170081000,5.6900810546875,-3.749685287475586,-2.5520358085632324,1.7398014068603516
1685919005179843000,5.699843017578125,-4.245816230773926,-2.4952778816223145,2.171518087387085
1685919005189604600,5.7096044921875,-4.627072334289551,-1.9474587440490723,2.276437759399414
1685919005199365000,5.719365234375,-4.6658453941345215,-0.721712052822113,1.9444619417190552
1685919005209126400,5.72912646484375,-3.836719512939453,1.7449418306350708,1.8456538915634155
1685919005218888700,5.738888671875,-1.8083243370056152,3.8563711643218994,2.342601776123047
1685919005228650000,5.74864990234375,1.0380544662475586,4.772442817687988,2.9552645683288574
1685919005238410500,5.758410400390625,4.469621658325195,4.502219200134277,3.1277377605438232
1685919005248172000,5.768172119140625,7.16623592376709,4.1931681632995605,2.4707424640655518
1685919005257934000,5.77793408203125,7.6511640548706055,3.2077386379241943,1.5778813362121582
1685919005267695400,5.7876953125,6.621541976928711,2.1373720169067383,0.5032848119735718
1685919005277456100,5.7974560546875,4.675381660461426,1.004638433456421,-0.4050271511077881
1685919005287217400,5.807217529296875,2.4329004287719727,-0.10992354154586792,-1.0712400674819946
1685919005296979500,5.8169794921875,0.32118892669677734,-0.9554598331451416,-1.438141107559204
1685919005306741000,5.826740966796875,-1.494673728942871,-1.440163254737854,-1.6536757946014404
1685919005316501500,5.83650146484375,-2.876814365386963,-1.9256477355957031,-1.771178126335144
1685919005326262800,5.8462626953125,-3.6831307411193848,-2.386240005493164,-1.7129969596862793
1685919005336025000,5.856025146484375,-3.991027355194092,-2.7730422019958496,-1.6211291551589966
1685919005345786400,5.865786376953125,-4.050878524780273,-3.093409538269043,-1.517086148262024
1685919005355547000,5.875546875,-3.8157267570495605,-3.268763303756714,-1.3551712036132812
1685919005365308400,5.885308349609375,-3.524656295776367,-3.401899814605713,-1.1870046854019165
1685919005375070500,5.895070556640625,-3.3201828002929688,-3.39106822013855,-0.9369231462478638
1685919005384831700,5.904831787109375,-3.253964424133301,-3.324984550476074,-0.695740818977356
1685919005394592500,5.914592529296875,-3.2344226837158203,-3.272311210632324,-0.46637654304504395
1685919005404353800,5.924353759765625,-3.3163414001464844,-3.170309066772461,-0.308982253074646
1685919005414115800,5.93411572265625,-3.3923287391662598,-2.9455604553222656,-0.20287394523620605
1685919005423877400,5.94387744140625,-3.5630249977111816,-2.623094320297241,-0.16613411903381348
1685919005433638000,5.953637939453125,-3.577979564666748,-2.244658946990967,-0.11144256591796875
1685919005443399200,5.963399169921875,-3.4500536918640137,-1.8480603694915771,-0.09481358528137207
1685919005453161500,5.973161376953125,-3.3253159523010254,-1.4723224639892578,-0.08967733383178711
1685919005462922800,5.9829228515625,-3.0387954711914062,-1.1405017375946045,-0.10087358951568604
1685919005472683300,5.992683349609375,-2.686277389526367,-0.7417845726013184,0.02593177556991577
1685919005482444800,6.00244482421875,-2.1360936164855957,-0.22319316864013672,0.23193377256393433
1685919005492206800,6.012206787109375,-1.490799903869629,0.47031664848327637,0.44469767808914185
1685919005501968100,6.021968017578125,-0.8667840957641602,1.2718751430511475,0.7165517210960388
1685919005511729000,6.03172900390625,-0.39203739166259766,2.437141180038452,1.117974042892456
1685919005521490200,6.041490234375,0.3086051940917969,3.487825870513916,1.6831181049346924
1685919005531252200,6.051252197265625,1.1219062805175781,4.2121171951293945,2.1955363750457764
1685919005541013800,6.061013671875,1.8392839431762695,4.480773448944092,2.553948163986206
1685919005550774300,6.070774169921875,2.4893836975097656,4.35340690612793,2.3758647441864014
1685919005560535600,6.08053564453125,2.9631166458129883,3.974414825439453,1.8773833513259888
1685919005570297900,6.0902978515625,3.14553165435791,3.5754313468933105,1.1245638132095337
1685919005580059100,6.10005908203125,3.2657222747802734,3.338777780532837,0.47913891077041626
1685919005589819600,6.109819580078125,3.4198122024536133,3.1557581424713135,0.1045907735824585
1685919005599581200,6.119581298828125,3.6457252502441406,3.042917251586914,-0.1154889166355133
1685919005609343200,6.12934326171875,3.7495059967041016,2.92611026763916,-0.2674312889575958
1685919005619104500,6.1391044921875,3.6498470306396484,2.9088234901428223,-0.310454785823822
1685919005628865300,6.148865234375,3.534806251525879,3.0514583587646484,0.11916276812553406
1685919005638626600,6.15862646484375,3.71075439453125,2.8254289627075195,1.010538935661316
1685919005648388600,6.168388671875,3.84226131439209,1.8713757991790771,1.1080782413482666
1685919005658150100,6.178150146484375,3.768604278564453,0.7776880264282227,0.44288137555122375
1685919005667910700,6.18791064453125,3.668394088745117,-0.3783233165740967,-0.03741765022277832
1685919005677672000,6.197671875,2.9784488677978516,-1.6747808456420898,-0.3428781032562256
1685919005687434200,6.207434326171875,2.024752616882324,-2.666980028152466,-0.8292953968048096
1685919005697195500,6.217195556640625,1.1963958740234375,-3.220125675201416,-1.417365550994873
1685919005706956000,6.2269560546875,0.4686450958251953,-3.416314125061035,-1.8472387790679932
1685919005716717600,6.236717529296875,0.007788658142089844,-3.408329486846924,-2.0470895767211914
1685919005726479600,6.246479736328125,-0.23253822326660156,-3.4199936389923096,-2.101623058319092
1685919005736241000,6.256240966796875,-0.307891845703125,-3.339470863342285,-2.1226966381073
1685919005746001700,6.266001708984375,-0.40000343322753906,-3.426567554473877,-2.053758144378662
1685919005755763000,6.275762939453125,-0.7228803634643555,-3.4316153526306152,-1.6782325506210327
1685919005765525000,6.28552490234375,-1.2846355438232422,-3.376291275024414,-1.1619635820388794
1685919005775286500,6.29528662109375,-2.043534278869629,-3.3905744552612305,-0.7009868621826172
1685919005785047000,6.305047119140625,-3.2429418563842773,-3.45611572265625,-0.3298490047454834
1685919005794808300,6.314808349609375,-4.278982162475586,-3.6693053245544434,-0.09777259826660156
1685919005804570600,6.324570556640625,-4.927491188049316,-3.7249093055725098,0.24017179012298584
1685919005814332000,6.334331787109375,-5.036398410797119,-3.5450901985168457,0.7375079989433289
1685919005824092400,6.344092529296875,-4.651368141174316,-3.0769548416137695,1.3978445529937744
1685919005833854000,6.35385400390625,-3.7282938957214355,-2.3120694160461426,2.209752321243286
1685919005843616000,6.363615966796875,-2.897491931915283,-1.5377404689788818,2.763957977294922
1685919005853377300,6.373377197265625,-2.328610897064209,-0.9951948523521423,3.0844883918762207
1685919005863138000,6.383137939453125,-1.9124464988708496,-0.8198510408401489,3.011927604675293
1685919005872899300,6.3928994140625,-1.3545846939086914,-0.7973472476005554,2.9769785404205322
1685919005882661400,6.402661376953125,-0.710235595703125,-0.7640689611434937,2.830955982208252
1685919005892423000,6.4124228515625,-0.06789493560791016,-0.31940335035324097,2.9307172298431396
1685919005902183400,6.422183349609375,0.813812255859375,0.4395712614059448,3.092071771621704
1685919005911944700,6.43194482421875,1.8489494323730469,1.404867172241211,3.1581053733825684
1685919005921707000,6.44170703125,2.804163932800293,2.100062608718872,3.165050506591797
1685919005931468300,6.45146826171875,3.3677854537963867,2.2234256267547607,2.8179078102111816
1685919005941228800,6.461228759765625,3.462421417236328,1.6446759700775146,1.9859325885772705
1685919005950990300,6.470990234375,2.9552955627441406,0.8134990334510803,1.061140537261963
1685919005960752400,6.48075244140625,2.0168981552124023,-0.09532052278518677,0.155898779630661
1685919005970513700,6.490513671875,0.8005409240722656,-0.7276264429092407,-0.5931435227394104
1685919005980274200,6.500274169921875,-0.47625064849853516,-1.092440128326416,-1.125478744506836
1685919005990035700,6.51003564453125,-1.486562728881836,-1.283988118171692,-1.5209698677062988
1685919005999797800,6.5197978515625,-2.3293638229370117,-1.326586127281189,-1.8074320554733276
1685919006009559300,6.529559326171875,-2.8527064323425293,-1.2327333688735962,-1.9944403171539307
1685919006019319800,6.53931982421875,-3.067392349243164,-0.9615049362182617,-2.0738351345062256
1685919006029081000,6.5490810546875,-2.89567232131958,-0.6865593791007996,-1.932863473892212
1685919006038843400,6.558843505859375,-2.3313984870910645,-0.3284147381782532,-1.654015064239502
1685919006048604700,6.568604736328125,-1.702380657196045,0.35107314586639404,-1.2717721462249756
1685919006058365200,6.578365234375,-1.0680007934570312,1.135522723197937,-0.8924345374107361
1685919006068126700,6.588126708984375,-0.2584085464477539,1.6552932262420654,-0.4675824046134949
1685919006077888800,6.597888671875,0.48738574981689453,1.954856276512146,-0.19659948348999023
1685919006087650000,6.607650146484375,1.0862464904785156,1.829827070236206,-0.14117130637168884
1685919006097410800,6.617410888671875,1.5076169967651367,1.377341866493225,-0.3536563515663147
1685919006107172000,6.627172119140625,1.670699119567871,0.8625257611274719,-0.801875650882721
1685919006116934100,6.63693408203125,1.3706188201904297,0.646917462348938,-1.1329740285873413
1685919006126695700,6.64669580078125,0.9378452301025391,0.6438404321670532,-1.3259093761444092
1685919006136456200,6.656456298828125,0.6088809967041016,0.6837494373321533,-1.2542179822921753
1685919006146217500,6.666217529296875,0.5385313034057617,0.6653931140899658,-1.0033029317855835
1685919006155979800,6.675979736328125,0.4729423522949219,0.6697801351547241,-0.7160227298736572
1685919006165741000,6.685740966796875,0.600677490234375,0.7225894927978516,-0.42494022846221924
1685919006175501600,6.69550146484375,0.7325239181518555,0.7744709253311157,-0.10726824402809143
1685919006185263000,6.70526318359375,0.7777891159057617,0.8467090129852295,0.21654164791107178
1685919006195025200,6.715025146484375,0.7870025634765625,0.986320972442627,0.5371671319007874
1685919006204786400,6.724786376953125,0.8153228759765625,1.1839851140975952,0.9165201187133789
1685919006214547200,6.734547119140625,1.0154600143432617,1.4889785051345825,1.1779186725616455
1685919006224308500,6.74430859375,1.2053699493408203,1.6896765232086182,1.3131794929504395
1685919006234070500,6.754070556640625,1.4472894668579102,1.5895788669586182,1.165982961654663
1685919006243832000,6.76383203125,1.6195182800292969,1.1493480205535889,0.7796266078948975
1685919006253592600,6.773592529296875,1.7319450378417969,0.7665818333625793,0.39915454387664795
1685919006263353900,6.783353759765625,1.7345762252807617,0.4242441952228546,0.10260319709777832
1685919006273116200,6.7931162109375,1.6133108139038086,0.2700521647930145,0.01661001145839691
1685919006282877400,6.80287744140625,1.2896690368652344,0.6291285157203674,0.3348703384399414
1685919006292638000,6.812637939453125,0.6232662200927734,0.7149840593338013,0.6867600083351135
1685919006302399500,6.8223994140625,0.3191490173339844,0.2191554307937622,0.5246356725692749
1685919006312161500,6.83216162109375,0.5979719161987305,-0.6579234600067139,-0.029913216829299927
1685919006321922800,6.8419228515625,0.9709959030151367,-1.5054904222488403,-0.5248035192489624
1685919006331683600,6.85168359375,1.4955062866210938,-2.183056592941284,-1.0454914569854736
1685919006341444900,6.86144482421875,2.238241195678711,-2.421717405319214,-1.6769694089889526
1685919006351207000,6.87120703125,3.1296463012695312,-2.3547565937042236,-2.2589690685272217
1685919006360968400,6.880968505859375,4.03096866607666,-2.2982239723205566,-2.643761157989502
1685919006370729000,6.89072900390625,4.385740280151367,-2.0887563228607178,-3.0954339504241943
1685919006380490200,6.900490234375,3.817934036254883,-1.953788161277771,-3.4440603256225586
1685919006390252500,6.91025244140625,2.5281906127929688,-1.8990753889083862,-3.414566993713379
1685919006400013800,6.920013916015625,0.9414825439453125,-1.8670340776443481,-2.9753167629241943
1685919006409774300,6.9297744140625,-0.6757001876831055,-1.983594298362732,-2.3071796894073486
1685919006419536000,6.939535888671875,-2.052889347076416,-2.1550538539886475,-1.5374213457107544
1685919006429298000,6.9492978515625,-3.1022486686706543,-2.4578680992126465,-0.5481436252593994
1685919006439059200,6.95905908203125,-3.937314033508301,-2.69966459274292,0.25227051973342896
1685919006448820000,6.968820068359375,-4.5620574951171875,-2.76729154586792,0.9429510235786438
1685919006458581200,6.978581298828125,-4.823360443115234,-2.721414089202881,1.5904561281204224
1685919006468343300,6.98834326171875,-4.812171459197998,-2.5266499519348145,2.193080186843872
1685919006478104800,6.998104736328125,-4.308340072631836,-1.427433967590332,2.659693717956543
1685919006487865300,7.007865234375,-3.1173038482666016,1.3919711112976074,3.391374349594116
1685919006497626600,7.017626708984375,-0.8502702713012695,4.590536594390869,4.911043643951416
1685919006507389000,7.027388916015625,2.4249534606933594,6.371611595153809,6.477800369262695
1685919006517150200,7.037150146484375,6.32089900970459,6.246519565582275,6.961977005004883
1685919006526910700,7.04691064453125,8.953421592712402,5.132216930389404,5.994515419006348
1685919006536672300,7.05667236328125,9.306127548217773,3.54604434967041,4.32404088973999
1685919006546434300,7.066434326171875,6.032120704650879,1.604005217552185,2.933969020843506
1685919006556195600,7.076195556640625,7.01104736328125,0.7631218433380127,1.0291789770126343
1685919006565956400,7.085956298828125,4.368308067321777,-0.4173888564109802,0.07370705902576447
1685919006575717600,7.095717529296875,1.790003776550293,-1.5100562572479248,-0.7876520752906799
1685919006585479700,7.105479736328125,0.20620441436767578,-2.037158966064453,-1.4809740781784058
1685919006595241200,7.1152412109375,-1.4742012023925781,-2.4801933765411377,-1.7507984638214111
1685919006605001700,7.125001708984375,-3.09108829498291,-2.8218905925750732,-1.7707496881484985
1685919006614763000,7.134762939453125,-4.1850266456604,-2.975085496902466,-1.7460541725158691
1685919006624525300,7.144525390625,-4.9574127197265625,-2.9735171794891357,-1.6191805601119995
1685919006634286600,7.15428662109375,-5.31043815612793,-2.9507241249084473,-1.402787446975708
1685919006644047000,7.164047119140625,-5.499544620513916,-2.956369400024414,-1.0855050086975098
1685919006653808600,7.17380859375,-5.483059883117676,-2.914257049560547,-0.716785192489624
1685919006663570700,7.18357080078125,-5.429250240325928,-2.8522984981536865,-0.4299616813659668
1685919006673332000,7.19333203125,-5.152362823486328,-2.677082061767578,-0.20395314693450928
1685919006683092700,7.2030927734375,-4.953909397125244,-2.5240650177001953,-0.16901981830596924
1685919006692854000,7.21285400390625,-4.582772254943848,-2.374641180038452,-0.12256467342376709
1685919006702616000,7.222615966796875,-4.241948127746582,-2.315676212310791,-0.13887250423431396
1685919006712377600,7.232377685546875,-4.000107288360596,-2.1849098205566406,-0.22685933113098145
1685919006722138000,7.24213818359375,-3.665776252746582,-1.8611583709716797,-0.3692969083786011
1685919006731899400,7.2518994140625,-3.1866846084594727,-1.4044040441513062,-0.5267781615257263
1685919006741661700,7.26166162109375,-2.4365177154541016,-0.9753835797309875,-0.5528181791305542
1685919006751423000,7.271423095703125,-1.7066378593444824,-0.5101781487464905,-0.4604276418685913
1685919006761183500,7.28118359375,-1.062769889831543,-0.13774597644805908,-0.3656650185585022
1685919006770945000,7.290945068359375,-0.30560302734375,0.41287457942962646,-0.2747393846511841
1685919006780707000,7.30070703125,0.4029684066772461,0.9493752717971802,-0.26465117931365967
1685919006790468400,7.31046826171875,0.9324836730957031,1.540212869644165,-0.04803037643432617
1685919006800229000,7.32022900390625,1.417515754699707,1.967141032218933,0.2332477569580078
1685919006809990400,7.329990478515625,1.6528024673461914,2.305931568145752,0.48867759108543396
1685919006819752700,7.339752685546875,1.7101678848266602,2.6323094367980957,0.6301851272583008
1685919006829514000,7.349513916015625,1.7442855834960938,2.8547544479370117,0.7342041730880737
1685919006839274500,7.3592744140625,1.858973503112793,2.957606554031372,0.7232588529586792
1685919006849035800,7.369035888671875,2.0219411849975586,2.799560070037842,0.5930203795433044
1685919006858798000,7.378798095703125,2.094395637512207,2.5762157440185547,0.24608072638511658
1685919006868559400,7.388559326171875,2.1107892990112305,2.4475698471069336,0.04709312319755554
1685919006878319900,7.39831982421875,2.191709518432617,2.996438980102539,0.2725435495376587
1685919006888081400,7.408081298828125,2.7691783905029297,3.645733118057251,1.2223312854766846
1685919006897843500,7.417843505859375,3.7098922729492188,3.728888511657715,2.083118438720703
1685919006907604700,7.427604736328125,4.743207931518555,3.48576021194458,2.302309036254883
1685919006917365500,7.437365478515625,5.895910263061523,2.516052007675171,2.1615819931030273
1685919006927126800,7.447126708984375,6.40247917175293,0.9909065961837769,1.5632401704788208
1685919006936888800,7.456888916015625,5.950710296630859,-0.36248937249183655,0.6785669326782227
1685919006946650400,7.466650390625,5.044744491577148,-1.3729650974273682,-0.3102579712867737
1685919006956411000,7.476410888671875,3.802461624145508,-1.9101160764694214,-1.2669901847839355
1685919006966172200,7.486172119140625,2.594585418701172,-2.0904762744903564,-1.967573881149292
1685919006975934500,7.4959345703125,1.4352054595947266,-2.106454849243164,-2.4510107040405273
1685919006985695700,7.50569580078125,0.1877880096435547,-2.046381950378418,-2.729220151901245
1685919006995456300,7.515456298828125,-0.8424434661865234,-1.972780704498291,-2.835613489151001
1685919007005217800,7.5252177734375,-1.7023897171020508,-1.9887967109680176,-2.913118600845337
1685919007014979800,7.534979736328125,-2.4004273414611816,-2.049499034881592,-2.682807683944702
1685919007024741000,7.5447412109375,-2.9420180320739746,-2.1002016067504883,-2.4132750034332275
1685919007034502000,7.554501953125,-3.3275461196899414,-2.077906608581543,-2.1387667655944824
1685919007044263200,7.56426318359375,-3.5382800102233887,-2.0410513877868652,-1.8551292419433594
1685919007054025500,7.574025390625,-3.7012152671813965,-2.1606085300445557,-1.5953538417816162
1685919007063786800,7.583786865234375,-3.9406051635742188,-2.249303102493286,-1.3953570127487183
1685919007073547300,7.59354736328125,-3.977262020111084,-2.3051958084106445,-1.188008427619934
1685919007083308500,7.60330859375,-3.8817081451416016,-2.470974922180176,-0.9555073976516724
1685919007093070800,7.61307080078125,-3.704719066619873,-2.699927806854248,-0.7591837644577026
1685919007102832000,7.62283203125,-3.5087156295776367,-2.8637757301330566,-0.5751488208770752
1685919007112592600,7.632592529296875,-3.215120315551758,-2.986682891845703,-0.4590870141983032
1685919007122354200,7.642354248046875,-2.838653564453125,-2.962264060974121,-0.3364781141281128
1685919007132116200,7.6521162109375,-2.546419620513916,-3.0264155864715576,-0.2335883378982544
1685919007141877800,7.661877685546875,-2.3237147331237793,-3.064436197280884,-0.19102966785430908
1685919007151638300,7.67163818359375,-1.9076762199401855,-2.9998085498809814,-0.10251998901367188
1685919007161399600,7.681399658203125,-1.6736431121826172,-2.834799289703369,-0.10268974304199219
1685919007171161900,7.691161865234375,-1.3629951477050781,-2.5229194164276123,-0.07539701461791992
1685919007180923100,7.700923095703125,-0.9591894149780273,-2.0307812690734863,-0.18118447065353394
1685919007190683600,7.71068359375,0.07036876678466797,-1.499202013015747,-0.2567439675331116
1685919007200445000,7.72044482421875,1.366795539855957,-1.051996111869812,-0.3298928737640381
1685919007210207200,7.730207275390625,2.4440994262695312,-0.720878005027771,-0.3607479929924011
1685919007219968500,7.739968505859375,3.03194522857666,-0.45481204986572266,-0.37916627526283264
1685919007229729000,7.74972900390625,3.1868486404418945,-0.30000048875808716,-0.36105743050575256
1685919007239490600,7.759490478515625,2.782926559448242,-0.2528740167617798,-0.45574668049812317
1685919007249252600,7.769252685546875,2.155048370361328,-0.267305850982666,-0.5803927779197693
1685919007259014100,7.77901416015625,1.319748878479004,-0.3327968716621399,-0.5821483731269836
1685919007268774700,7.788774658203125,0.33937644958496094,-0.3802906274795532,-0.601984977722168
1685919007278536000,7.798535888671875,-0.6496667861938477,-0.3216168284416199,-0.5593438148498535
1685919007288298000,7.808298095703125,-1.4636831283569336,-0.25599271059036255,-0.5128337144851685
1685919007298059500,7.8180595703125,-2.01993989944458,-0.2726321220397949,-0.4665817320346832
1685919007307820000,7.827820068359375,-2.4294352531433105,-0.301442414522171,-0.3965871334075928
1685919007317581300,7.837581298828125,-2.6142239570617676,-0.3143506646156311,-0.4028037190437317
1685919007327343600,7.847343505859375,-2.639652729034424,-0.35802125930786133,-0.5213085412979126
1685919007337105000,7.85710498046875,-2.1909255981445312,-0.4752669334411621,-0.6078773736953735
1685919007346865400,7.866865478515625,-1.3668279647827148,-0.5545117855072021,-0.5437870025634766
1685919007356627000,7.876626953125,-0.7862176895141602,-0.6173303723335266,-0.6055057048797607
1685919007366389000,7.886388916015625,-0.37392425537109375,-0.4720968008041382,-0.6377344727516174
1685919007376150300,7.896150390625,-0.11739635467529297,-0.368919312953949,-0.6040232181549072
1685919007385911000,7.9059111328125,0.11986446380615234,-0.3656117618083954,-0.5393651723861694
1685919007395672300,7.91567236328125,0.26140403747558594,-0.29350894689559937,-0.5310085415840149
1685919007405434600,7.9254345703125,0.29551124572753906,-0.15782472491264343,-0.5039130449295044
1685919007415196000,7.93519580078125,0.44922542572021484,0.16339364647865295,-0.38766834139823914
1685919007424956400,7.944956298828125,0.788945198059082,0.44025373458862305,-0.14505264163017273
1685919007434717700,7.9547177734375,1.0108709335327148,0.8073879480361938,0.14223122596740723
1685919007444480000,7.96447998046875,1.0938348770141602,1.2271263599395752,0.5146969556808472
1685919007454241300,7.9742412109375,1.226837158203125,1.6829208135604858,0.7750388383865356
1685919007464001800,7.984001708984375,1.3357677459716797,1.9906349182128906,1.2042933702468872
1685919007473763300,7.993763427734375,1.5114641189575195,2.137141704559326,1.5983413457870483
1685919007483525400,8.003525390625,1.7130804061889648,1.958685278892517,1.730705976486206
1685919007493287000,8.013286865234376,1.6323347091674805,1.8134552240371704,1.7498981952667236
1685919007503047400,8.02304736328125,1.4967126846313477,1.563509225845337,1.592012882232666
1685919007512808700,8.03280859375,1.2967376708984375,1.4664525985717773,1.480222225189209
1685919007522570800,8.04257080078125,1.1042661666870117,1.2222998142242432,1.3494818210601807
1685919007532332300,8.052332275390626,0.8167476654052734,1.1318613290786743,1.3469856977462769
1685919007542092800,8.0620927734375,0.616002082824707,1.0307745933532715,1.1514811515808105
1685919007551854000,8.07185400390625,0.5782957077026367,1.0340347290039062,1.1976076364517212
1685919007561616400,8.081616455078125,0.79638671875,1.0783876180648804,1.3471112251281738
1685919007571377700,8.091377685546876,1.0021295547485352,1.1216628551483154,1.4129259586334229
1685919007581138400,8.101138427734375,0.8731231689453125,1.4062557220458984,1.579237461090088
1685919007590899700,8.110899658203126,0.4316997528076172,1.3530570268630981,1.6775521039962769
1685919007600661800,8.120661865234375,0.2398681640625,0.9112160205841064,1.5029640197753906
1685919007610423000,8.130423095703126,0.5430145263671875,0.32523322105407715,0.9555400609970093
1685919007620183800,8.140183837890625,1.1897716522216797,-0.20698583126068115,0.20917560160160065
1685919007629945000,8.149945068359376,2.270509719848633,-0.7019305229187012,-0.8341127634048462
1685919007639707400,8.159707275390625,3.361565589904785,-0.989093005657196,-2.1464662551879883
1685919007649468700,8.16946875,4.4050750732421875,-1.0695080757141113,-3.3671889305114746
1685919007659229200,8.179229248046875,4.860398292541504,-0.9427768588066101,-4.291598796844482
1685919007668990700,8.18899072265625,5.012091636657715,-1.0810232162475586,-4.9503936767578125
1685919007678752800,8.198752685546875,4.277530670166016,-1.0678417682647705,-5.196192264556885
1685919007688514000,8.20851416015625,3.167778968811035,-1.2495081424713135,-5.052431583404541
1685919007698274600,8.218274658203125,1.5676288604736328,-1.599686622619629,-4.521755695343018
1685919007708036000,8.2280361328125,-0.1287851333618164,-1.9482803344726562,-3.9009504318237305
1685919007717798100,8.237798095703125,-1.6714744567871094,-2.1545417308807373,-3.129533052444458
1685919007727559700,8.2475595703125,-3.066958427429199,-2.285518169403076,-2.3410773277282715
1685919007737320200,8.2573203125,-4.078864097595215,-2.4232022762298584,-1.570920705795288
1685919007747081500,8.26708154296875,-4.7255659103393555,-2.5427052974700928,-0.8924925327301025
1685919007756843800,8.27684375,-4.916381359100342,-2.7032508850097656,-0.47272396087646484
1685919007766605000,8.28660498046875,-4.515690803527832,-2.4793484210968018,-0.21362847089767456
1685919007776365600,8.296365478515625,-3.652617931365967,-1.5308427810668945,0.027834981679916382
1685919007786126800,8.306126953125,-2.3069815635681152,-0.1437072455883026,0.10609403252601624
1685919007795889200,8.31588916015625,-0.7634963989257812,1.575674295425415,0.24346020817756653
1685919007805650400,8.325650390625,1.3458633422851562,2.8449342250823975,0.5062057971954346
1685919007815411200,8.3354111328125,3.9202327728271484,3.2057383060455322,0.8901662826538086
1685919007825172500,8.34517236328125,6.059237480163574,3.115128993988037,0.8087035417556763
1685919007834934500,8.3549345703125,6.864415168762207,2.6529524326324463,0.3838141858577728
1685919007844696000,8.364696044921875,6.654214859008789,2.083690881729126,-0.179254949092865
1685919007854456600,8.37445654296875,5.478757858276367,1.2957700490951538,-0.8973245024681091
1685919007864217900,8.3842177734375,3.6560487747192383,0.4856330156326294,-1.4754462242126465
1685919007873980000,8.39397998046875,1.668447494506836,-0.30452316999435425,-1.8277373313903809
1685919007883741400,8.403741455078125,-0.1225128173828125,-0.7715715169906616,-2.063828229904175
1685919007893502000,8.413501953125,-1.6529436111450195,-1.156036615371704,-2.0416312217712402
1685919007903263500,8.423263427734375,-2.950258731842041,-1.6153008937835693,-1.8955671787261963
1685919007913025500,8.433025634765626,-3.7893524169921875,-1.9998629093170166,-1.7318246364593506
1685919007922786800,8.442786865234375,-4.165581703186035,-2.4035696983337402,-1.724873661994934
1685919007932547600,8.452547607421875,-4.460812568664551,-2.6202359199523926,-1.3719207048416138
1685919007942308900,8.462308837890625,-4.561472415924072,-2.7020726203918457,-1.1638457775115967
1685919007952071000,8.47207080078125,-4.537648677825928,-2.6591403484344482,-1.088788628578186
1685919007961832400,8.48183251953125,-4.440154075622559,-2.6719539165496826,-1.0229620933532715
1685919007971593000,8.491593017578126,-4.130919933319092,-2.6856813430786133,-0.9975980520248413
1685919007981354200,8.501354248046875,-3.7941694259643555,-2.7407073974609375,-0.9379740953445435
1685919007991116500,8.511116455078126,-3.4319911003112793,-2.8126468658447266,-0.8545223474502563
1685919008000877800,8.5208779296875,-3.067840099334717,-2.7600045204162598,-0.7543728351593018
1685919008010638300,8.530638427734376,-2.698887825012207,-2.6835250854492188,-0.7007602453231812
1685919008020399900,8.54039990234375,-2.3510661125183105,-2.6462910175323486,-0.6463190317153931
1685919008030162000,8.550161865234376,-1.9093341827392578,-2.616403579711914,-0.6568606495857239
1685919008039923200,8.559923095703125,-1.6672325134277344,-2.646545886993408,-0.683654248714447
1685919008049683700,8.56968359375,-1.5499505996704102,-2.7200775146484375,-0.7009382247924805
1685919008059445200,8.5794453125,-1.480813980102539,-2.755876064300537,-0.6623594164848328
1685919008069207300,8.589207275390624,-1.3499565124511719,-2.6557364463806152,-0.4976649880409241
1685919008078968800,8.59896875,-1.0718231201171875,-2.3529562950134277,-0.1938694715499878
1685919008088729300,8.608729248046876,-0.8091020584106445,-1.8622183799743652,0.13119453191757202
1685919008098490600,8.61849072265625,-0.4754667282104492,-1.2342623472213745,0.5790059566497803
1685919008108253000,8.6282529296875,0.00799560546875,-0.46329015493392944,0.9403216242790222
1685919008118014200,8.63801416015625,0.47662925720214844,0.39833521842956543,1.323024034500122
1685919008127774700,8.647774658203126,0.9500617980957031,1.6207929849624634,1.8536932468414307
1685919008137536000,8.657535888671875,1.619288444519043,3.132600784301758,2.6509642601013184
1685919008147298300,8.66729833984375,2.3237648010253906,4.734063148498535,3.6391406059265137
1685919008157059600,8.6770595703125,2.817776679992676,6.285540580749512,4.620304107666016
1685919008166820400,8.6868203125,3.434145927429199,7.153292179107666,5.467930793762207
1685919008176581600,8.69658154296875,4.012689590454102,7.364560604095459,5.5016913414001465
1685919008186343700,8.70634375,3.8751611709594727,6.951578617095947,4.79859733581543
1685919008196105200,8.716105224609375,3.1995840072631836,6.070892333984375,3.4786086082458496
1685919008205865700,8.72586572265625,2.57647705078125,4.850583076477051,2.024686098098755
1685919008215627000,8.735626953125,2.164841651916504,3.525259494781494,0.5790132284164429
1685919008225389300,8.745389404296875,1.7028474807739258,2.3278465270996094,-0.7706129550933838
1685919008235150600,8.755150634765625,1.5708494186401367,1.6331037282943726,-1.0692261457443237
1685919008244911000,8.7649111328125,1.8210315704345703,0.9683793783187866,-0.6773208379745483
1685919008254672600,8.774672607421875,2.305856704711914,-0.04502439498901367,-0.5161964297294617
1685919008264434700,8.7844345703125,2.6719894409179688,-1.2600295543670654,-0.9541593194007874
1685919008274196000,8.794196044921875,3.27188777923584,-2.5703163146972656,-1.938704490661621
1685919008283956700,8.803956787109374,4.21153450012207,-3.2749056816101074,-3.2725343704223633
1685919008293718000,8.813718017578125,5.013343811035156,-4.111253261566162,-4.338535308837891
1685919008303480000,8.82347998046875,5.2710466384887695,-5.018875598907471,-4.645151138305664
1685919008313241600,8.83324169921875,4.911088943481445,-5.850567817687988,-4.513394832611084
1685919008323002000,8.843002197265625,3.8059606552124023,-6.365138530731201,-4.1326799392700195
1685919008332763400,8.852763427734375,2.150904655456543,-6.456369400024414,-3.3670260906219482
1685919008342525700,8.862525634765625,0.2608785629272461,-6.0448174476623535,-2.1186952590942383
1685919008352287000,8.872286865234376,-1.4530925750732422,-5.534125804901123,-0.7608324289321899
1685919008362047500,8.882047607421875,-3.1945013999938965,-4.8204779624938965,0.5303548574447632
1685919008371809000,8.89180908203125,-4.711875915527344,-3.967754364013672,1.4741889238357544
1685919008381571000,8.901571044921875,-5.837438583374023,-3.2041549682617188,2.1615703105926514
1685919008391332400,8.911332275390626,-6.638375282287598,-2.7441835403442383,2.475977897644043
1685919008401093000,8.921093017578125,-6.959378242492676,-2.6092121601104736,2.616931915283203
1685919008410854400,8.9308544921875,-6.804880142211914,-2.810513973236084,2.61350154876709
1685919008420616400,8.940616455078125,-6.12800407409668,-2.983109474182129,2.6155571937561035
1685919008430378000,8.9503779296875,-5.293393135070801,-3.0121889114379883,2.6114144325256348
1685919008440138500,8.960138427734375,-4.257508754730225,-3.009269952774048,2.735485553741455
1685919008449899800,8.969899658203126,-3.2272000312805176,-3.0343918800354004,2.745908260345459
1685919008459662000,8.979662109375,-2.310114860534668,-3.0133848190307617,2.776273727416992
1685919008469423400,8.98942333984375,-1.6443901062011719,-3.0739550590515137,2.8349075317382812
1685919008479184000,8.999183837890625,-1.1416254043579102,-3.230524778366089,2.845979690551758
1685919008488945400,9.0089453125,-0.685969352722168,-3.1515376567840576,2.9489965438842773
1685919008498707500,9.01870751953125,-0.012331008911132812,-2.522317886352539,3.1362671852111816
1685919008508468700,9.02846875,0.8525972366333008,-1.233544111251831,3.5315213203430176
1685919008518229500,9.0382294921875,1.8376169204711914,0.1684938669204712,4.021146297454834
1685919008527990800,9.04799072265625,2.6169204711914062,1.6300075054168701,4.42015266418457
1685919008537752800,9.0577529296875,3.204195976257324,2.714506149291992,4.591904640197754
1685919008547514400,9.067514404296874,3.4782371520996094,3.1025633811950684,4.446630477905273
1685919008557275000,9.07727490234375,3.468076705932617,2.794023036956787,4.037417888641357
1685919008567036200,9.0870361328125,2.964106559753418,1.859582543373108,3.3403491973876953
1685919008576798500,9.096798583984375,1.9917516708374023,0.7477498054504395,2.3221607208251953
1685919008586559700,9.106559814453124,0.8150615692138672,-0.08518552780151367,1.3876161575317383
1685919008596320300,9.1163203125,-0.49675846099853516,-0.42849212884902954,0.6132794618606567
1685919008606081800,9.126081787109374,-1.7010235786437988,-0.3346613049507141,0.04710674285888672
1685919008615843800,9.13584375,-2.553485870361328,0.006713271141052246,-0.5472195148468018
1685919008625605000,9.145605224609374,-2.982207775115967,0.37198948860168457,-0.8791676163673401
1685919008635366000,9.155365966796875,-2.8649845123291016,0.4539463520050049,-1.0294189453125
1685919008645127200,9.165127197265624,-2.351489543914795,0.4413018822669983,-1.112066388130188
1685919008654889500,9.174889404296875,-1.6381382942199707,0.3597126007080078,-1.2404210567474365
1685919008664650800,9.184650634765624,-1.0661077499389648,0.24061930179595947,-1.4788227081298828
1685919008674411300,9.194411376953125,-0.4193534851074219,0.24937593936920166,-1.5033900737762451
1685919008684172500,9.204172607421874,0.0899667739868164,0.317130446434021,-1.6697365045547485
1685919008693934800,9.213934814453125,0.5437660217285156,0.5399015545845032,-1.610844612121582
1685919008703696100,9.223696044921875,0.8419380187988281,0.9093841910362244,-1.3785302639007568
1685919008713456600,9.23345654296875,1.2164726257324219,1.4500393867492676,-1.0091323852539062
1685919008723218200,9.24321826171875,1.5094547271728516,1.7598161697387695,-0.46240460872650146
1685919008732980200,9.252980224609376,1.6137094497680664,1.9464075565338135,0.014752209186553955
1685919008742741800,9.26274169921875,1.5821914672851562,2.037595272064209,0.39851075410842896
1685919008752502300,9.272502197265625,1.4866695404052734,2.03487491607666,0.6418200731277466
1685919008762263600,9.282263671875,1.4583587646484375,1.9496172666549683,0.8759763240814209
1685919008772025600,9.292025634765626,1.320261001586914,2.0418155193328857,1.1666679382324219
1685919008781787100,9.301787109375,1.196782112121582,2.1658949851989746,1.3936831951141357
1685919008791547600,9.311547607421875,1.2812576293945312,2.185044288635254,1.523038387298584
1685919008801309000,9.321308837890625,1.2556676864624023,2.1105878353118896,1.4674955606460571
1685919008811071200,9.3310712890625,1.3020620346069336,1.8947913646697998,1.307249903678894
1685919008820832500,9.34083251953125,1.4300174713134766,1.5887274742126465,1.1608514785766602
1685919008830593000,9.350593017578126,1.4459781646728516,1.1363856792449951,0.865311324596405
1685919008840354600,9.3603544921875,1.379018783569336,0.7319033145904541,0.595565915107727
1685919008850116600,9.37011669921875,1.052830696105957,0.5174954533576965,0.3771359324455261
1685919008859878000,9.3798779296875,0.5874404907226562,0.3700031638145447,0.3442586660385132
1685919008869638700,9.389638671875,-0.005265235900878906,0.05751621723175049,0.4315727651119232
1685919008879400000,9.39939990234375,-0.5443058013916016,-0.8647969961166382,0.18687421083450317
1685919008889162200,9.409162353515624,-0.5536003112792969,-1.735163927078247,-0.3031339645385742
1685919008898923500,9.418923583984375,-0.20486927032470703,-2.165700674057007,-0.6641691327095032
1685919008908684000,9.42868408203125,0.4938993453979492,-2.282846212387085,-1.0202903747558594
1685919008918445300,9.4384453125,1.5520572662353516,-2.2876179218292236,-1.411376714706421
1685919008928207600,9.44820751953125,2.6855859756469727,-2.188990592956543,-1.9932568073272705
1685919008937969000,9.457968994140625,3.4943618774414062,-2.0582363605499268,-2.636382579803467
1685919008947729400,9.4677294921875,3.9970102310180664,-1.9167993068695068,-3.2361958026885986
1685919008957491000,9.477490966796875,3.7532835006713867,-1.8970766067504883,-3.5582897663116455
1685919008967253000,9.4872529296875,2.9159297943115234,-2.093381643295288,-3.4522488117218018
1685919008977014500,9.4970146484375,1.8732366561889648,-2.543367385864258,-2.714118719100952
1685919008986775000,9.506775146484374,0.4705209732055664,-2.789950370788574,-1.7828259468078613
1685919008996536300,9.516536376953125,-0.8999500274658203,-2.8010544776916504,-0.9001819491386414
1685919009006298600,9.526298583984374,-1.9789094924926758,-2.8888041973114014,-0.1379103660583496
1685919009016060000,9.536059814453125,-2.68764066696167,-2.773754596710205,0.6822702884674072
1685919009025820400,9.5458203125,-2.9119200706481934,-2.532932996749878,1.339376449584961
1685919009035581700,9.555581787109375,-2.9550857543945312,-2.1211581230163574,1.8335645198822021
1685919009045344000,9.565343994140624,-2.614905834197998,-1.385467529296875,1.9153624773025513
1685919009055105300,9.575105224609375,-2.199913501739502,-0.3189828395843506,1.8237735033035278
1685919009064865800,9.58486572265625,-1.5256538391113281,1.2622430324554443,1.7021509408950806
1685919009074627300,9.59462744140625,-0.3654003143310547,2.9780335426330566,2.0038187503814697
1685919009084389400,9.604389404296874,1.638340950012207,4.358832836151123,2.5851564407348633
1685919009094151000,9.61415087890625,3.873215675354004,4.862680912017822,2.9989941120147705
1685919009103911400,9.623911376953124,6.020420074462891,4.619751930236816,2.7709462642669678
1685919009113672700,9.633672607421875,6.697203636169434,3.7612144947052,2.127676486968994
1685919009123434800,9.643434814453125,6.056685447692871,2.738980770111084,1.1024152040481567
1685919009133196300,9.6531962890625,4.580203056335449,1.677829623222351,0.07625776529312134
1685919009142956800,9.662956787109374,2.530320167541504,0.7255633473396301,-0.5857921242713928
1685919009152718300,9.67271826171875,0.5174350738525391,-0.04869532585144043,-0.9882980585098267
1685919009162480400,9.68248046875,-1.3113718032836914,-0.7023904323577881,-1.3697401285171509
1685919009172241700,9.69224169921875,-2.769571304321289,-1.397575855255127,-1.5408052206039429
1685919009182002400,9.70200244140625,-3.7290844917297363,-2.0331950187683105,-1.545951008796692
1685919009191763700,9.711763671875,-4.350677013397217,-2.719780921936035,-1.4575161933898926
1685919009201525800,9.72152587890625,-4.8012309074401855,-3.2729172706604004,-1.4099410772323608
1685919009211287000,9.731287109375,-4.9365715980529785,-3.684452533721924,-1.3250070810317993
1685919009221047800,9.7410478515625,-4.980125427246094,-3.9390082359313965,-1.210098147392273
1685919009230809000,9.75080908203125,-4.979865074157715,-3.9834773540496826,-1.0589172840118408
1685919009240571400,9.7605712890625,-4.776097297668457,-3.8867201805114746,-0.9129035472869873
1685919009250332700,9.770332763671876,-4.5339436531066895,-3.6470837593078613,-0.687134861946106
1685919009260093200,9.78009326171875,-4.4245500564575195,-3.4962944984436035,-0.5150176286697388
1685919009269854700,9.789854736328126,-4.3588128089904785,-3.236088752746582,-0.39458727836608887
1685919009279616800,9.79961669921875,-4.014293193817139,-2.8899359703063965,-0.32576513290405273
1685919009289378000,9.8093779296875,-3.5755906105041504,-2.6234242916107178,-0.23303866386413574
1685919009299138600,9.819138671875,-3.2308177947998047,-2.2791380882263184,-0.2152479887008667
1685919009308900000,9.828900146484376,-2.7927374839782715,-1.875046968460083,-0.35751867294311523
1685919009318662100,9.838662109375,-2.21152400970459,-1.484416127204895,-0.43772196769714355
1685919009328423700,9.848423583984374,-1.6853857040405273,-1.0583279132843018,-0.43202197551727295
1685919009338184200,9.85818408203125,-1.1969738006591797,-0.6152319312095642,-0.3232330083847046
1685919009347945500,9.867945556640626,-0.5193576812744141,-0.04840672016143799,-0.271289587020874
1685919009357707800,9.877707763671875,0.22299766540527344,0.4192162752151489,-0.13339745998382568
1685919009367469000,9.887468994140624,0.8921728134155273,0.9332058429718018,0.012925267219543457
1685919009377229600,9.8972294921875,1.4674749374389648,1.5263080596923828,0.24978196620941162
1685919009386990800,9.906990966796876,2.19277286529541,2.2913594245910645,0.5740464329719543
1685919009396753200,9.916753173828125,2.9650392532348633,3.190904140472412,1.1326355934143066
1685919009406514400,9.926514404296874,3.762950897216797,3.85872220993042,1.8608293533325195
1685919009416275200,9.936275146484375,4.443483352661133,4.22929573059082,2.1946020126342773
1685919009426036500,9.946036376953124,4.689634323120117,4.462127685546875,2.1072137355804443
1685919009435798500,9.955798583984375,4.536121368408203,4.6251912117004395,1.8330366611480713
1685919009445560000,9.96556005859375,4.291841506958008,4.829735279083252,1.671940803527832
1685919009455320600,9.975320556640625,4.326800346374512,4.909367084503174,1.6218762397766113
1685919009465081900,9.985081787109374,4.320133209228516,4.666110992431641,1.3630996942520142
1685919009474844200,9.99484423828125,4.209708213806152,4.603355407714844,1.254897117614746
1685919009484605400,10.00460546875,4.463105201721191,3.8650379180908203,1.5447354316711426
1685919009494366000,10.014365966796875,4.367464065551758,2.0906147956848145,0.9791141748428345
1685919009504127500,10.02412744140625,3.829153060913086,0.6560815572738647,-0.20114660263061523
1685919009513889500,10.0338896484375,3.1033544540405273,-0.7252343893051147,-1.1388959884643555
1685919009523650800,10.04365087890625,2.148061752319336,-1.9738211631774902,-1.7921546697616577
1685919009533411600,10.05341162109375,0.985194206237793,-2.9342479705810547,-2.3021864891052246
1685919009543172900,10.0631728515625,-0.1801137924194336,-3.5134177207946777,-2.8321404457092285
1685919009552935000,10.072934814453125,-0.9003067016601562,-3.6810474395751953,-3.3066940307617188
1685919009562696400,10.082696533203125,-1.428513526916504,-3.7090070247650146,-3.5915536880493164
1685919009572457000,10.09245703125,-1.6348199844360352,-3.798563003540039,-3.796205520629883
1685919009582218200,10.10221826171875,-1.3010034561157227,-3.807620048522949,-3.872204542160034
1685919009591980500,10.11198046875,-0.8580083847045898,-3.9432244300842285,-3.4642858505249023
1685919009601741800,10.121741943359375,-0.5862674713134766,-3.9092254638671875,-2.8599207401275635
1685919009611502300,10.13150244140625,-0.7129631042480469,-3.7531299591064453,-2.1857259273529053
1685919009621264000,10.141263916015625,-1.1090002059936523,-3.6371567249298096,-1.6037486791610718
1685919009631026000,10.15102587890625,-1.8686156272888184,-3.5466392040252686,-0.9201021194458008
1685919009640787200,10.160787109375,-2.738391876220703,-3.4543235301971436,-0.3381613492965698
1685919009650548000,10.1705478515625,-3.3877763748168945,-3.3987207412719727,0.15145432949066162
1685919009660309200,10.180309326171875,-3.8503379821777344,-3.187070608139038,0.5605086088180542
1685919009670071300,10.1900712890625,-4.063989162445068,-2.9887144565582275,0.8280678391456604
1685919009679832800,10.199832763671875,-3.9950056076049805,-2.730593681335449,1.0289579629898071
1685919009689593300,10.20959326171875,-3.694946765899658,-2.4966723918914795,1.2220988273620605
1685919009699354600,10.219354736328125,-3.2192797660827637,-2.4358439445495605,1.3798089027404785
1685919009709117000,10.229116943359376,-2.508151054382324,-2.3218865394592285,1.4947669506072998
1685919009718878200,10.238878173828125,-1.8523774147033691,-2.0469799041748047,1.5791094303131104
1685919009728638700,10.248638671875,-1.1552619934082031,-1.6428836584091187,1.737675428390503
1685919009738400300,10.258400146484375,-0.39933300018310547,-0.24336040019989014,2.068300724029541
1685919009748162300,10.268162353515624,0.2965230941772461,1.616215467453003,2.808034896850586
1685919009757923600,10.277923583984375,1.1927728652954102,3.068084239959717,3.6866443157196045
1685919009767684400,10.287684326171876,2.492447853088379,3.675996780395508,4.20849084854126
1685919009777445600,10.297445556640625,3.883572578430176,3.2681684494018555,4.003423690795898
1685919009787207700,10.307207763671874,4.5109052658081055,2.2260711193084717,3.0885021686553955
1685919009796969200,10.31696923828125,4.081488609313965,0.9323959350585938,1.6366665363311768
1685919009806729700,10.326729736328126,3.0466299057006836,-0.2772747874259949,0.4253450036048889
1685919009816491000,10.336490966796875,1.6362123489379883,-1.3184902667999268,-0.647374153137207
1685919009826253300,10.34625341796875,0.17496776580810547,-2.042433261871338,-1.3930156230926514
1685919009836014600,10.3560146484375,-1.2973928451538086,-2.4573733806610107,-1.7322406768798828
1685919009845775000,10.365775146484374,-2.6340694427490234,-2.407961368560791,-1.8894035816192627
1685919009855536600,10.37553662109375,-3.466658115386963,-2.14943790435791,-1.865893006324768
1685919009865298700,10.385298583984374,-3.9456119537353516,-1.8600044250488281,-1.6926133632659912
1685919009875060000,10.39506005859375,-4.232316970825195,-1.5861729383468628,-1.3834457397460938
1685919009884820700,10.40482080078125,-4.081583023071289,-1.1645855903625488,-1.0502058267593384
1685919009894582000,10.41458203125,-3.401878833770752,-0.5641663074493408,-0.5281680226325989
1685919009904344000,10.424343994140624,-2.569164752960205,0.268656849861145,0.02709299325942993
1685919009914105600,10.434105712890625,-1.7428059577941895,1.066084861755371,0.5560696125030518
1685919009923866000,10.4438662109375,-1.0554542541503906,1.7419922351837158,1.0842571258544922
1685919009933627400,10.45362744140625,-0.2863798141479492,2.11924147605896,1.4636421203613281
1685919009943389700,10.4633896484375,0.8418178558349609,1.9825856685638428,1.511561632156372
1685919009953151000,10.47315087890625,2.011385917663574,1.5936661958694458,1.281663417816162
1685919009962911500,10.482911376953124,2.5209827423095703,1.1312103271484375,0.7700168490409851
1685919009972673000,10.492673095703125,2.181640625,0.9981569051742554,0.14929741621017456
1685919009982435000,10.50243505859375,1.7449092864990234,1.0098782777786255,-0.4016496539115906
1685919009992196400,10.5121962890625,1.4967384338378906,0.7398218512535095,-0.808013916015625
1685919010001957000,10.52195703125,1.271224021911621,0.46222972869873047,-0.9388359785079956
1685919010011718400,10.531718505859375,0.9559354782104492,0.3922652304172516,-1.011582851409912
1685919010021480400,10.54148046875,0.7013025283813477,0.5024973154067993,-1.004248857498169
1685919010031242000,10.551241943359376,0.6573247909545898,0.7763282060623169,-0.7614767551422119
1685919010041002500,10.56100244140625,0.7945404052734375,0.9943475723266602,-0.3749142289161682
1685919010050763800,10.570763671875,0.9166460037231445,1.172105312347412,0.02812027931213379
1685919010060526000,10.580526123046875,0.928309440612793,1.5468318462371826,0.23875325918197632
1685919010070287400,10.590287353515626,1.0398263931274414,1.7937967777252197,0.4700285494327545
1685919010080047900,10.6000478515625,1.339289665222168,1.8016821146011353,0.5603697299957275
1685919010089809400,10.609809326171876,1.56866455078125,1.4957913160324097,0.3214905560016632
1685919010099571500,10.619571533203125,1.4566020965576172,0.9824692010879517,-0.14725559949874878
1685919010109332700,10.629332763671876,1.2646808624267578,0.4437335431575775,-0.6986625790596008
1685919010119093500,10.639093505859375,0.9739398956298828,0.18956917524337769,-0.9372093677520752
1685919010128854800,10.648854736328126,0.45795536041259766,0.27919167280197144,-1.0599170923233032
1685919010138616800,10.658616943359375,-0.1279296875,-0.09888052940368652,-1.106835126876831
1685919010148378400,10.66837841796875,-0.19701290130615234,-0.8956279754638672,-1.426525592803955
1685919010158139000,10.678138916015625,0.06707286834716797,-1.499572515487671,-1.825801134109497
1685919010167900200,10.687900146484376,0.6771612167358398,-1.6310919523239136,-2.121407985687256
1685919010177662500,10.697662353515625,1.6702537536621094,-1.741980791091919,-2.5123467445373535
1685919010187423700,10.707423828125,3.0147504806518555,-1.857951045036316,-2.8931384086608887
1685919010197184300,10.717184326171875,4.163982391357422,-1.9543722867965698,-3.3051929473876953
1685919010206945800,10.72694580078125,4.604052543640137,-1.9191821813583374,-3.602665901184082
1685919010216707800,10.736707763671875,4.521605491638184,-1.8535912036895752,-3.7108614444732666
1685919010226469400,10.746469482421874,3.732402801513672,-1.8933149576187134,-3.664138078689575
1685919010236230000,10.75622998046875,2.522873878479004,-1.9371354579925537,-3.437974214553833
1685919010245991200,10.7659912109375,1.202132225036621,-2.089185953140259,-3.021583080291748
1685919010255753200,10.775753173828125,-0.09124565124511719,-2.2610528469085693,-2.4413747787475586
1685919010265514800,10.7855146484375,-1.0665388107299805,-2.3951776027679443,-1.706967830657959
1685919010275275300,10.795275146484375,-1.7512421607971191,-2.4961113929748535,-0.8956338167190552
1685919010285036500,10.80503662109375,-2.378195285797119,-2.7229270935058594,-0.06652098894119263
1685919010294798800,10.814798828125,-2.967334747314453,-2.9108221530914307,0.7298119068145752
1685919010304560000,10.82456005859375,-3.3955941200256348,-2.9284534454345703,1.3248077630996704
1685919010314320600,10.834320556640625,-3.566810131072998,-2.7686996459960938,1.8728463649749756
1685919010324082200,10.844082275390624,-3.4993019104003906,-2.35325288772583,2.1626737117767334
1685919010333844200,10.85384423828125,-3.191624164581299,-1.505997657775879,2.2452549934387207
1685919010343605500,10.86360546875,-2.582200050354004,-0.06176650524139404,2.2281172275543213
1685919010353366300,10.8733662109375,-1.530705451965332,1.5731860399246216,2.3921403884887695
1685919010363127600,10.88312744140625,0.07160282135009766,3.0935044288635254,2.826228141784668
1685919010372889600,10.8928896484375,2.292740821838379,3.6122570037841797,3.159078598022461
1685919010382651100,10.902651123046875,4.86270809173584,3.0680806636810303,3.032613515853882
1685919010392411600,10.91241162109375,6.48226261138916,2.3054256439208984,2.1372499465942383
1685919010402173000,10.9221728515625,6.4404144287109375,1.5324103832244873,1.1552151441574097
1685919010411935200,10.931935302734376,5.308416366577148,0.7673587799072266,0.1385960876941681
1685919010421696500,10.941696533203125,3.4135608673095703,0.02752077579498291,-0.5177763104438782
1685919010431457000,10.95145703125,1.4592704772949219,-0.6102995276451111,-0.859613835811615
1685919010441218600,10.961218505859375,-0.18296432495117188,-1.0148324966430664,-1.0428922176361084
1685919010450980600,10.970980712890626,-1.503312110900879,-1.337782621383667,-1.1532254219055176
1685919010460742000,10.980741943359375,-2.4993252754211426,-1.5704097747802734,-1.2251263856887817
1685919010470502700,10.990502685546875,-3.101830005645752,-1.7996821403503418,-1.3156850337982178
1685919010480264000,11.000263916015625,-3.3179163932800293,-2.1470203399658203,-1.3711577653884888
1685919010490026000,11.01002587890625,-3.242405414581299,-2.406245470046997,-1.3467848300933838
1685919010499787500,11.01978759765625,-3.000411033630371,-2.701237201690674,-1.3204810619354248
1685919010509548000,11.029548095703126,-2.745059013366699,-2.8525991439819336,-1.277987003326416
1685919010519309300,11.039309326171875,-2.5022292137145996,-3.016829013824463,-1.3295423984527588
1685919010529071600,11.049071533203126,-2.3907384872436523,-3.0291295051574707,-1.3485029935836792
1685919010538833000,11.0588330078125,-2.3668971061706543,-3.0633702278137207,-1.3908464908599854
1685919010548593400,11.068593505859376,-2.3802342414855957,-2.9980220794677734,-1.4295302629470825
1685919010558355000,11.07835498046875,-2.4356188774108887,-2.8476083278656006,-1.475616455078125
1685919010568117000,11.088116943359376,-2.2634239196777344,-2.678614616394043,-1.4475762844085693
1685919010577878300,11.097878173828125,-2.0337390899658203,-2.594797134399414,-1.3782917261123657
1685919010587639000,11.10763916015625,-1.6774210929870605,-2.3115992546081543,-1.2509642839431763
1685919010597400300,11.117400390625,-1.2185554504394531,-2.0202839374542236,-1.1150015592575073
1685919010607162400,11.127162353515626,-0.7050390243530273,-1.6759061813354492,-1.0329147577285767
1685919010616924000,11.136923828125,-0.29165077209472656,-1.331148624420166,-0.8080807328224182
1685919010626684400,11.146684326171876,0.008233070373535156,-1.004368782043457,-0.5968683362007141
1685919010636445700,11.15644580078125,0.48676013946533203,-0.5271410942077637,-0.2791922092437744
1685919010646208000,11.1662080078125,1.0053892135620117,0.03500926494598389,0.0876808762550354
1685919010655969300,11.17596923828125,1.2924041748046875,0.4105370044708252,0.4521702527999878
1685919010665729800,11.185729736328126,1.4108171463012695,0.6820403337478638,0.5456390380859375
1685919010675491300,11.1954912109375,1.4347190856933594,0.7157086133956909,0.5540002584457397
1685919010685253400,11.20525341796875,1.7742586135864258,0.8267953395843506,0.6246559619903564
1685919010695014700,11.2150146484375,2.1753501892089844,0.8793313503265381,0.6420764327049255
1685919010704775400,11.224775390625,2.225274085998535,0.6064653396606445,0.6882084608078003
1685919010714536700,11.23453662109375,1.8398351669311523,0.1762559413909912,0.5833028554916382
1685919010724299000,11.244299072265624,1.1853456497192383,-0.2964162826538086,0.37812238931655884
1685919010734060300,11.254060302734375,0.5013875961303711,-0.48961520195007324,0.22344034910202026
1685919010743820800,11.26382080078125,-0.04754066467285156,-0.47073423862457275,0.28246843814849854
1685919010753582000,11.27358203125,-0.2575254440307617,-0.24797403812408447,0.7713878154754639
1685919010763344400,11.283344482421874,0.1486034393310547,0.30302655696868896,1.6683140993118286
1685919010773105700,11.293105712890625,0.6956405639648438,1.273729681968689,2.5641884803771973
1685919010782866200,11.3028662109375,1.375112533569336,1.5893265008926392,2.6075141429901123
1685919010792627700,11.312627685546875,2.0465240478515625,0.7503427267074585,1.7446331977844238
1685919010802389800,11.3223896484375,2.36379337310791,0.07193005084991455,0.7447771430015564
1685919010812151300,11.3321513671875,2.2395105361938477,-0.23989713191986084,0.03997945040464401
1685919010821911800,11.341911865234374,2.1402387619018555,-0.3632779121398926,-0.5260769128799438
1685919010831673000,11.351673095703125,2.1314783096313477,-0.8040403723716736,-0.9517889618873596
1685919010841435100,11.36143505859375,1.767806053161621,-1.7125402688980103,-1.327030897140503
1685919010851196700,11.37119677734375,0.7699975967407227,-2.8754642009735107,-1.5550591945648193
1685919010860957200,11.380957275390625,-0.7361125946044922,-3.7631449699401855,-2.096806049346924
1685919010870718500,11.390718505859375,-2.252068042755127,-4.029043197631836,-2.8474011421203613
1685919010880480800,11.400480712890625,-3.1745643615722656,-3.975475788116455,-3.4846951961517334
1685919010890242000,11.410241943359376,-3.5008506774902344,-3.878575086593628,-3.754275321960449
1685919010900002600,11.42000244140625,-3.4559764862060547,-3.723639965057373,-3.7332675457000732
1685919010909764000,11.42976416015625,-2.654482364654541,-3.6727659702301025,-3.4240870475769043
1685919010919526100,11.439526123046875,-1.696892261505127,-3.630825996398926,-2.783163547515869
1685919010929287400,11.449287353515626,-0.8993320465087891,-3.5325496196746826,-2.18788480758667
1685919010939048200,11.459048095703125,-0.4455852508544922,-3.387111186981201,-1.7006523609161377
1685919010948809500,11.4688095703125,-0.23791217803955078,-3.180467128753662,-1.3407354354858398
1685919010958571500,11.478571533203125,-0.3492317199707031,-3.0619192123413086,-1.056559681892395
1685919010968333000,11.4883330078125,-0.4493589401245117,-2.8551487922668457,-0.8555582165718079
1685919010978093600,11.498093505859375,-0.6223516464233398,-2.7637057304382324,-0.6790857911109924
1685919010987854800,11.507854736328126,-1.0019330978393555,-2.6618845462799072,-0.5362932682037354
1685919010997617200,11.5176171875,-1.3658256530761719,-2.53326678276062,-0.553534984588623
1685919011007378400,11.52737841796875,-1.6407475471496582,-2.3589296340942383,-0.5000141859054565
1685919011017139000,11.537138916015625,-1.7609381675720215,-2.059629201889038,-0.4059438705444336
1685919011026900500,11.546900390625,-1.4768495559692383,-1.6553517580032349,-0.332195520401001
1685919011036662500,11.55666259765625,-0.968998908996582,-1.158987283706665,-0.23834407329559326
1685919011046424000,11.566424072265624,-0.17577171325683594,-0.45166343450546265,-0.16403067111968994
1685919011056184600,11.5761845703125,0.7188215255737305,0.4295271635055542,0.12698185443878174
1685919011065945900,11.58594580078125,1.8656721115112305,1.4227585792541504,0.48156237602233887
1685919011075708000,11.5957080078125,3.076519012451172,2.319329023361206,1.0009688138961792
1685919011085469400,11.605469482421874,3.9085426330566406,2.7425920963287354,1.2407970428466797
1685919011095230000,11.61522998046875,4.335291862487793,2.6416430473327637,1.0851526260375977
1685919011104991200,11.6249912109375,4.157928466796875,2.0240719318389893,0.4512272775173187
1685919011114753500,11.63475341796875,3.3568477630615234,1.2033107280731201,-0.31175631284713745
1685919011124514800,11.644514892578124,2.186617851257324,0.3995513916015625,-0.9185788631439209
1685919011134275300,11.654275390625,0.9748315811157227,-0.28408241271972656,-1.3923856019973755
1685919011144036900,11.664036865234374,-0.28626155853271484,-0.8764169812202454,-1.826512336730957
1685919011153799000,11.673798828125,-1.389913558959961,-1.2289156913757324,-2.14225172996521
1685919011163560200,11.683560302734374,-2.1682515144348145,-1.4961676597595215,-2.2326440811157227
1685919011173321000,11.693321044921875,-2.7043561935424805,-1.7104765176773071,-2.177396774291992
1685919011183082200,11.703082275390624,-2.9471278190612793,-1.922818899154663,-2.023491859436035
1685919011192844300,11.71284423828125,-2.9289236068725586,-2.0165328979492188,-1.9269225597381592
1685919011202605800,11.722605712890624,-2.7987051010131836,-2.0654098987579346,-1.8582261800765991
1685919011212366300,11.732366455078125,-2.7595906257629395,-2.2173759937286377,-1.900463342666626
1685919011222127600,11.742127685546874,-2.484182834625244,-2.2427492141723633,-1.974179983139038
1685919011231890000,11.751889892578125,-1.8751301765441895,-2.287954330444336,-1.884661078453064
1685919011241651200,11.761651123046875,-1.2670097351074219,-2.2657690048217773,-1.6631219387054443
1685919011251411700,11.77141162109375,-0.8331737518310547,-2.2109479904174805,-1.4922244548797607
1685919011261173200,11.78117333984375,-0.5178098678588867,-2.014596462249756,-1.3590037822723389
1685919011270935300,11.790935302734376,-0.1275491714477539,-1.5874431133270264,-1.1557385921478271
1685919011280696600,11.800696533203125,0.19401836395263672,-1.1350691318511963,-0.7773127555847168
1685919011290457300,11.810457275390625,0.48801422119140625,-0.4775983989238739,-0.4510464668273926
1685919011300218600,11.820218505859375,1.0054969787597656,0.17050713300704956,-0.1597687005996704
1685919011309981000,11.82998095703125,1.600677490234375,0.6281546950340271,0.07703077793121338
1685919011319742200,11.8397421875,2.118997573852539,0.7934988737106323,0.3267359733581543
1685919011329502700,11.849502685546875,2.336915969848633,0.7911239266395569,0.42397069931030273
1685919011339264000,11.859263916015625,2.525035858154297,0.6429778933525085,0.4153803586959839
1685919011349026300,11.8690263671875,2.27700138092041,0.3741782605648041,0.3352142572402954
1685919011358787600,11.87878759765625,1.436345100402832,0.28213655948638916,0.18813717365264893
1685919011368548000,11.888548095703126,0.43660449981689453,0.2416428029537201,0.09348136186599731
1685919011378309600,11.8983095703125,-0.4071950912475586,0.2333253026008606,0.04520130157470703
1685919011388071700,11.90807177734375,-0.7402439117431641,0.23743653297424316,0.13736271858215332
1685919011397833200,11.917833251953125,-0.9008474349975586,0.25784528255462646,0.38748517632484436
1685919011407593700,11.92759375,-1.2785701751708984,0.41957414150238037,0.47239047288894653
1685919011417355000,11.93735498046875,-1.5838842391967773,0.606715738773346,0.3796633780002594
1685919011427117000,11.947116943359376,-1.6764264106750488,0.5211284160614014,0.20557957887649536
1685919011436878600,11.956878662109375,-1.4280290603637695,0.22903889417648315,-0.016214847564697266
1685919011446639000,11.96663916015625,-1.0353660583496094,-0.08177858591079712,-0.17012590169906616
1685919011456400400,11.976400390625,-0.8781681060791016,-0.2343137264251709,-0.5344547033309937
1685919011466162700,11.98616259765625,-0.614105224609375,-0.2510892152786255,-0.993898332118988
1685919011475924000,11.995924072265625,-0.2077474594116211,-0.3228512406349182,-1.53816556930542
1685919011485684500,12.0056845703125,0.31438159942626953,-0.4850017726421356,-2.0700573921203613
1685919011495446000,12.015446044921875,0.9951820373535156,-0.6070230603218079,-2.5503108501434326
1685919011505208000,12.0252080078125,1.8822126388549805,-0.5874931812286377,-3.045109748840332
1685919011514969300,12.03496923828125,2.621870994567871,-0.4947095215320587,-3.28853702545166
1685919011524730000,12.044730224609374,3.2508296966552734,-0.38346701860427856,-3.3712778091430664
1685919011534491400,12.054491455078125,3.4330387115478516,-0.2126980870962143,-3.4641218185424805
1685919011544253700,12.064253662109374,3.1675405502319336,-0.1709446758031845,-3.370471239089966
1685919011554015000,12.074014892578125,2.4051551818847656,-0.2912027835845947,-3.133772611618042
1685919011563775500,12.083775390625,1.5406465530395508,-0.41316527128219604,-2.7536678314208984
1685919011573536800,12.093536865234375,0.5806884765625,-0.556761622428894,-2.3118896484375
1685919011583299000,12.103299072265624,-0.3794441223144531,-0.7956042289733887,-1.8917782306671143
1685919011593060400,12.113060302734375,-1.177597999572754,-1.0429986715316772,-1.5186024904251099
1685919011602820900,12.12282080078125,-1.6114082336425781,-1.091208815574646,-1.0970770120620728
1685919011612582400,12.13258251953125,-1.7941641807556152,-1.164075493812561,-0.69507896900177
1685919011622344400,12.142344482421874,-1.752814769744873,-1.2476304769515991,-0.26653242111206055
1685919011632106000,12.15210595703125,-1.5548019409179688,-1.3895972967147827,0.022352099418640137
1685919011641866500,12.161866455078124,-1.2984609603881836,-1.4345133304595947,0.22006499767303467
1685919011651627800,12.171627685546875,-0.8169107437133789,-1.5154156684875488,0.3920876383781433
1685919011661389800,12.181389892578125,-0.3543052673339844,-1.5699880123138428,0.6995694041252136
1685919011671151400,12.1911513671875,0.1374225616455078,-1.6049926280975342,0.8728506565093994
1685919011680912000,12.200911865234374,0.6298561096191406,-1.5051831007003784,1.0657377243041992
1685919011690673200,12.210673095703125,1.0253839492797852,-1.316434621810913,1.281297206878662
1685919011700435500,12.220435546875,1.4702959060668945,-1.1235487461090088,1.3733806610107422
1685919011710196700,12.23019677734375,2.0577821731567383,-0.8159757852554321,1.4125200510025024
1685919011719957200,12.239957275390625,2.787478446960449,-0.6287184953689575,1.3849719762802124
1685919011729718800,12.24971875,3.7259950637817383,-0.6316238045692444,1.349173665046692
1685919011739480800,12.259480712890625,4.304830551147461,-0.741700291633606,1.3590140342712402
1685919011749242000,12.2692421875,4.59710693359375,-0.823987603187561,1.2034382820129395
1685919011759003000,12.2790029296875,4.2983598709106445,-1.0799987316131592,1.0340259075164795
1685919011768764200,12.28876416015625,3.5609092712402344,-1.3013420104980469,0.7584565877914429
1685919011778526200,12.298526123046875,2.397869110107422,-1.5079890489578247,0.5300690531730652
1685919011788287700,12.308287841796876,1.2351694107055664,-1.6857389211654663,0.4002302289009094
1685919011798048300,12.31804833984375,0.22769832611083984,-1.8070321083068848,0.35439908504486084
1685919011807809500,12.3278095703125,-0.6156768798828125,-1.9350316524505615,0.33089572191238403
1685919011817571800,12.33757177734375,-1.5273590087890625,-1.9638266563415527,0.3147427439689636
1685919011827333000,12.3473330078125,-2.2402095794677734,-1.9142959117889404,0.18551874160766602
1685919011837093600,12.35709375,-2.812786102294922,-1.830451488494873,0.11903614550828934
1685919011846855200,12.366855224609376,-3.1578474044799805,-1.7211809158325195,0.12464112043380737
1685919011856617200,12.3766171875,-3.2909798622131348,-1.5317682027816772,0.13893523812294006
1685919011866378800,12.386378662109376,-3.191779136657715,-1.320567011833191,0.11209846287965775
1685919011876139300,12.39613916015625,-3.03781795501709,-1.142434000968933,0.12441325932741165
1685919011885900500,12.405900634765626,-2.7241368293762207,-1.0462206602096558,0.028642453253269196
1685919011895662600,12.41566259765625,-2.367992401123047,-0.9066701531410217,-0.07336726784706116
1685919011905424100,12.425424072265624,-1.978902816772461,-0.8085444569587708,-0.16326044499874115
1685919011915184600,12.4351845703125,-1.5448341369628906,-0.7910355925559998,-0.23286762833595276
1685919011924946000,12.44494580078125,-1.1372079849243164,-0.7960076928138733,-0.24919411540031433
1685919011934708200,12.454708251953125,-0.8319454193115234,-0.8042472004890442,-0.2182581126689911
