time,seconds_elapsed,z,y,x
1685918999571940600,0.091940673828125,7.504789352416992,3.0143582820892334,0.497408002614975
1685918999581701600,0.10170166015625,7.8903326988220215,3.316153049468994,1.4790635108947754
1685918999591463400,0.11146337890625,8.225327491760254,2.940180778503418,1.100698471069336
1685918999601225000,0.121224853515625,8.007580757141113,2.5857439041137695,1.0671988725662231
1685918999610986000,0.130986083984375,7.528717517852783,2.2555344104766846,1.2251251935958862
1685918999620747000,0.1407470703125,7.1958160400390625,2.0207388401031494,1.1509476900100708
1685918999630508800,0.1505087890625,7.150352478027344,1.8843477964401245,0.9643075466156006
1685918999640270300,0.160270263671875,6.939784049987793,1.7766708135604858,0.7606185078620911
1685918999650031400,0.17003125,6.599703788757324,1.7120646238327026,0.5548357367515564
1685918999659792400,0.17979248046875,6.157031536102295,1.690529227256775,0.4184448719024658
1685918999669554200,0.18955419921875,5.3955159187316895,1.5780665874481201,0.4088735580444336
1685918999679315700,0.199315673828125,4.1985063552856445,1.5780665874481201,0.45194438099861145
1685918999689076700,0.20907666015625,3.2527432441711426,1.7766708135604858,0.3849453330039978
1685918999698837800,0.218837646484375,3.1331021785736084,2.0829520225524902,0.34666016697883606
1685918999708599600,0.228599609375,3.6287155151367188,2.2722842693328857,0.23389841616153717
1685918999718361000,0.238361083984375,4.986044406890869,2.073380708694458,-0.08673982322216034
1685918999728122000,0.2481220703125,6.314958095550537,2.0039889812469482,0.2745763957500458
1685918999737883100,0.257883056640625,7.322934627532959,1.5490535497665405,0.9068797826766968
1685918999747645000,0.26764501953125,8.42423152923584,1.2379865646362305,1.2346965074539185
1685918999757406500,0.277406494140625,9.489336013793945,1.2643076181411743,0.8997012972831726
1685918999767167500,0.28716748046875,10.006484985351562,0.8955138921737671,0.6218347549438477
1685918999776928500,0.296928466796875,9.831809043884277,0.4046861231327057,0.5237290859222412
1685918999786690300,0.306690185546875,9.336195945739746,0.09122636169195175,0.392123818397522
1685918999796451800,0.316451904296875,8.857332229614258,0.2347957193851471,-0.5177469849586487
1685918999806212900,0.326212890625,8.356932640075684,0.2754737138748169,-1.5400804281234741
1685918999815974000,0.335973876953125,8.050651550292969,0.11276176571846008,-2.1361923217773438
1685918999825735700,0.345735595703125,8.048258781433105,-0.21774685382843018,-2.121835470199585
1685918999835497200,0.355497314453125,8.44576644897461,-0.2799602448940277,-2.1433708667755127
1685918999845258200,0.36525830078125,9.056235313415527,-0.29431718587875366,-2.162513494491577
1685918999855019300,0.375019287109375,9.482157707214355,-0.1986042857170105,-1.9854445457458496
1685918999864781000,0.384781005859375,10.133604049682617,-0.14835500717163086,-1.8559330701828003
1685918999874542800,0.39454296875,11.201102256774902,-0.17228323221206665,-1.8248263597488403
1685918999884303600,0.4043037109375,12.376874923706055,-0.3445664644241333,-1.7410775423049927
1685918999894064600,0.414064697265625,13.47338581085205,-0.5982056856155396,-1.7458631992340088
1685918999903826400,0.423826416015625,14.330315589904785,-0.9167501926422119,-1.6429718732833862
1685918999913588200,0.433588134765625,14.957534790039062,-1.1751750707626343,-1.7434704303741455
1685918999923349000,0.443348876953125,14.82114315032959,-1.0698908567428589,-1.8607187271118164
1685918999933110000,0.453110107421875,14.284852027893066,-0.6771687865257263,-1.8846468925476074
1685918999942871800,0.462871826171875,13.425230979919434,-0.20578274130821228,-1.6669000387191772
1685918999952633600,0.472633544921875,12.55872917175293,0.3640081584453583,-1.6860426664352417
1685918999962394400,0.482394287109375,12.060723304748535,0.7088736891746521,-1.8367904424667358
1685918999972155400,0.4921552734375,11.744571685791016,0.8548358678817749,-1.9181464910507202
1685918999981917200,0.501917236328125,11.672786712646484,0.7854440212249756,-1.8702900409698486
1685918999991679000,0.511678955078125,11.464611053466797,0.5796613097190857,-1.9013967514038086
1685919000001440000,0.52143994140625,11.122138977050781,0.45523449778556824,-2.083550214767456
1685919000011200800,0.53120068359375,11.15085220336914,0.4142574071884155,-2.1984057426452637
1685919000020962600,0.540962646484375,11.596217155456543,0.3975076675415039,-2.2055842876434326
1685919000030724400,0.550724365234375,11.972188949584961,0.35922250151634216,-1.8655043840408325
1685919000040485400,0.5604853515625,12.027223587036133,0.6083751320838928,-1.6142579317092896
1685919000050246100,0.57024609375,11.965010643005371,0.9912267923355103,-1.664507269859314
1685919000060008000,0.580008056640625,11.883654594421387,1.226022481918335,-1.5185450315475464
1685919000069769700,0.589769775390625,11.888440132141113,1.4246268272399902,-1.4395818710327148
1685919000079530800,0.59953076171875,11.574681282043457,1.5083755254745483,-1.3052847385406494
1685919000089291500,0.60929150390625,11.354541778564453,1.55623197555542,-1.3411771059036255
1685919000099053300,0.61905322265625,11.560324668884277,1.3863415718078613,-1.2646067142486572
1685919000108815000,0.628815185546875,11.718250274658203,1.1470593214035034,-1.2741780281066895
1685919000118576000,0.638576171875,11.488539695739746,1.0345966815948486,-1.3677972555160522
1685919000128337000,0.6483369140625,11.203495025634766,0.9098708033561707,-1.413260817527771
1685919000138098700,0.6580986328125,10.94028377532959,0.8835497498512268,-1.4970096349716187
1685919000147860500,0.667860595703125,10.64088249206543,0.9050851464271545,-1.3869398832321167
1685919000157621500,0.67762158203125,10.487741470336914,1.0369895696640015,-1.293320655822754
1685919000167382500,0.687382568359375,10.511670112609863,1.111167073249817,-1.2478569746017456
1685919000177144300,0.697144287109375,10.2747802734375,1.163809061050415,-1.211964726448059
1685919000186905900,0.70690576171875,9.980164527893066,1.285843014717102,-1.1114661693572998
1685919000196667000,0.7166669921875,9.731310844421387,1.3265210390090942,-1.0827522277832031
1685919000206428000,0.726427978515625,9.369695663452148,1.3600205183029175,-1.0348957777023315
1685919000216189700,0.736189697265625,9.156734466552734,1.3959128856658936,-1.0803594589233398
1685919000225951200,0.745951171875,9.1112699508667,1.3145569562911987,-0.9439685344696045
1685919000235712300,0.755712158203125,9.355338096618652,1.532303810119629,-1.164108157157898
1685919000245473300,0.765473388671875,9.171091079711914,1.867598056793213,-1.4682958126068115
1685919000255235000,0.775235107421875,9.032307624816895,2.2004995346069336,-1.547258973121643
1685919000264996900,0.784996826171875,9.350552558898926,2.775076150894165,-1.5520446300506592
1685919000274757600,0.794757568359375,9.920343399047852,3.292224884033203,-1.2191431522369385
1685919000284518700,0.8045185546875,10.703394889831543,3.643969774246216,-0.4866403043270111
1685919000294280400,0.814280517578125,11.71585750579834,3.7899320125579834,0.3275175988674164
1685919000304042200,0.824042236328125,12.407981872558594,3.584149122238159,0.914058268070221
1685919000313803300,0.83380322265625,12.360125541687012,3.1818559169769287,1.0767701864242554
1685919000323564000,0.84356396484375,11.579466819763184,2.743969440460205,0.7941179871559143
1685919000333325800,0.853325927734375,10.459028244018555,2.140678882598877,0.37537404894828796
1685919000343087600,0.863087646484375,9.525527954101562,1.5876377820968628,-0.09152546525001526
1685919000352848600,0.8728486328125,8.677870750427246,1.20687997341156,-0.5991029739379883
1685919000362609400,0.882609375,8.208578109741211,0.771087110042572,-0.9655039310455322
1685919000372371200,0.89237109375,8.093722343444824,0.529412031173706,-1.2574282884597778
1685919000382133000,0.902133056640625,8.287541389465332,0.37597227096557617,-1.3989039659500122
1685919000391894000,0.91189404296875,8.775976181030273,0.41904306411743164,-1.4659029245376587
1685919000401655000,0.921655029296875,9.18305492401123,0.368793785572052,-1.4706885814666748
1685919000411416800,0.931416748046875,9.843772888183594,0.39032918214797974,-1.475474238395691
1685919000421178400,0.941178466796875,10.49252700805664,0.33050861954689026,-1.3797613382339478
1685919000430939400,0.950939453125,10.842178344726562,0.2682952284812927,-1.3244273662567139
1685919000440700400,0.960700439453125,10.760822296142578,0.23001007735729218,-1.3363914489746094
1685919000450462200,0.970462158203125,10.403992652893066,0.3496512174606323,-1.3268201351165771
1685919000460224000,0.98022412109375,9.901201248168945,0.4743770956993103,-1.2885349988937378
1685919000469984800,0.98998486328125,9.458230018615723,0.5365904569625854,-1.2023934125900269
1685919000479745800,0.999745849609375,9.005986213684082,0.6370890140533447,-1.1497513055801392
1685919000489507600,1.009507568359375,8.768797874450684,0.7136593461036682,-0.9678967595100403
1685919000499269400,1.019269287109375,8.91954517364502,0.8644071817398071,-0.9320043921470642
1685919000509030400,1.029030517578125,8.747262001037598,1.0441679954528809,-0.8458628058433533
1685919000518791200,1.038791259765625,8.730512619018555,1.048953652381897,-0.5823532342910767
1685919000528553000,1.048552978515625,8.921937942504883,1.1518449783325195,-0.41485562920570374
1685919000538314800,1.058314697265625,9.015557289123535,1.3145569562911987,-0.35024940967559814
1685919000548075800,1.06807568359375,9.262018203735352,1.5179468393325806,-0.24975086748600006
1685919000557836800,1.0778369140625,9.453444480895996,1.695314884185791,-0.15134602785110474
1685919000567598600,1.0875986328125,9.695418357849121,1.8891334533691406,-0.14416755735874176
1685919000577360100,1.097360107421875,9.719346046447754,2.049452543258667,-0.1537388563156128
1685919000587121200,1.10712109375,9.779167175292969,2.2603201866149902,-0.09391828626394272
1685919000596882200,1.116882080078125,9.970592498779297,2.3895325660705566,0.006580262444913387
1685919000606644000,1.12664404296875,10.212567329406738,2.535494804382324,0.0687936544418335
1685919000616405500,1.136405517578125,10.286744117736816,2.4972095489501953,0.025722842663526535
1685919000626166500,1.14616650390625,10.427921295166016,2.3512473106384277,-0.04127619042992592
1685919000635927600,1.155927490234375,10.415956497192383,2.0757737159729004,-0.15613168478012085
1685919000645689300,1.165689453125,10.29153060913086,1.6354942321777344,-0.28085756301879883
1685919000655451100,1.175451171875,9.975378036499023,1.3360923528671265,-0.43639102578163147
1685919000665212200,1.185212158203125,9.659525871276855,1.084846019744873,-0.6708876490592957
1685919000674973000,1.194972900390625,9.252447128295898,0.9457631707191467,-0.8913264274597168
1685919000684734700,1.204734619140625,8.950652122497559,0.7471588850021362,-1.0660024881362915
1685919000694496500,1.21449658203125,8.792725563049316,0.5581258535385132,-1.144965648651123
1685919000704257500,1.224257568359375,8.768797874450684,0.39032918214797974,-1.2502498626708984
1685919000714018300,1.234018310546875,8.783154487609863,0.27308088541030884,-1.2741780281066895
1685919000723780000,1.243780029296875,8.89083194732666,0.2874378263950348,-1.2550355195999146
1685919000733542000,1.2535419921875,9.0514497756958,0.3616153299808502,-1.171286702156067
1685919000743303000,1.263302978515625,9.290732383728027,0.5174478888511658,-1.0157532691955566
1685919000753064000,1.27306396484375,9.491728782653809,0.7112665176391602,-0.8793623447418213
1685919000762825700,1.28282568359375,9.580562591552734,0.9266205430030823,-0.6924230456352234
1685919000772587300,1.292587158203125,9.652347564697266,1.163809061050415,-0.5536393523216248
1685919000782348300,1.302348388671875,9.829416275024414,1.328913927078247,-0.47706902027130127
1685919000792109300,1.312109375,10.047163009643555,1.5490535497665405,-0.26889345049858093
1685919000801871000,1.32187109375,10.224531173706055,1.6857435703277588,-0.2350948303937912
1685919000811633000,1.3316328125,10.415956497192383,1.7575281858444214,-0.12023933976888657
1685919000821393700,1.3413935546875,10.48534870147705,1.8508483171463013,-0.09152546525001526
1685919000831154700,1.35115478515625,10.320243835449219,1.841277003288269,-0.08673982322216034
1685919000840916500,1.36091650390625,10.044770240783691,1.8604196310043335,-0.1537388563156128
1685919000850678300,1.37067822265625,9.74806022644043,1.786242127418518,-0.18723836541175842
1685919000860439300,1.380439208984375,9.369695663452148,1.6235301494598389,-0.2521436810493469
1685919000870200000,1.390199951171875,9.360123634338379,1.4868401288986206,-0.3167499005794525
1685919000879961900,1.3999619140625,9.297910690307617,1.312164068222046,-0.2111666053533554
1685919000889723600,1.4097236328125,9.288339614868164,1.108774185180664,-0.376570463180542
1685919000899484700,1.419484619140625,9.419944763183594,0.9553344249725342,-0.481854647397995
1685919000909245700,1.42924560546875,9.508479118347168,0.8644071817398071,-0.5344967842102051
1685919000919007500,1.439007568359375,9.561420440673828,0.7471588850021362,-0.6158527135848999
1685919000928769000,1.44876904296875,9.501300811767578,0.6921239495277405,-0.6230311989784241
1685919000938530000,1.458530029296875,9.355338096618652,0.6059823632240295,-0.7235297560691833
1685919000948291000,1.468291015625,9.750452995300293,0.6586244106292725,-0.6948158740997314
1685919000958052900,1.478052978515625,9.815059661865234,0.737587571144104,-0.4507479667663574
1685919000967814700,1.487814697265625,9.678668022155762,0.9050851464271545,-0.4914259612560272
1685919000977575700,1.49757568359375,9.400801658630371,0.8644071817398071,-0.7115656137466431
1685919000987336400,1.50733642578125,9.771988868713379,0.9529415965080261,-0.5632106065750122
1685919000997098200,1.51709814453125,9.738489151000977,0.8691928386688232,-0.47706902027130127
1685919001006860000,1.526860107421875,9.645169258117676,0.9385846853256226,-0.7474579811096191
1685919001016621000,1.53662109375,10.597811698913574,1.4054841995239258,-0.5991029739379883
1685919001026382000,1.546382080078125,10.837392807006836,1.6259230375289917,-0.29760730266571045
1685919001036143600,1.5561435546875,10.90439224243164,1.8747764825820923,-0.2063809484243393
1685919001045905400,1.565905517578125,11.304292678833008,2.2459630966186523,0.23389841616153717
1685919001055666400,1.57566650390625,10.992926597595215,2.281855583190918,0.7749754190444946
1685919001065427500,1.585427490234375,10.52363395690918,2.6551358699798584,0.5979065299034119
1685919001075189200,1.595189208984375,10.207781791687012,2.782254457473755,0.4136592149734497
1685919001084951000,1.604950927734375,10.1814603805542,2.3249263763427734,0.1501496136188507
1685919001094711800,1.6147119140625,10.540383338928223,1.903490424156189,-0.38614174723625183
1685919001104472800,1.624472900390625,11.014461517333984,1.348056435585022,-1.0444670915603638
1685919001114234600,1.634234619140625,11.59382438659668,0.9409775137901306,-1.822433590888977
1685919001123996400,1.643996337890625,12.12054443359375,0.4695914387702942,-2.488236427307129
1685919001133757400,1.65375732421875,12.829118728637695,0.1821536272764206,-2.962015390396118
1685919001143518200,1.663518310546875,13.092628479003906,-0.12442677468061447,-3.2829527854919434
1685919001153280000,1.673280029296875,13.028021812438965,-0.3086741268634796,-3.4815568923950195
1685919001163041800,1.683041748046875,12.44387435913086,-0.5335994362831116,-3.579662561416626
1685919001172802800,1.692802734375,11.46939754486084,-0.8306085467338562,-3.541377544403076
1685919001182563800,1.702563720703125,10.234102249145508,-1.098604679107666,-3.510270833969116
1685919001192325400,1.712325439453125,8.89801025390625,-1.3405789136886597,-3.3475589752197266
1685919001202087200,1.722087158203125,8.076972961425781,-1.5750755071640015,-3.232703447341919
1685919001211848200,1.73184814453125,7.808677673339844,-1.43389892578125,-2.8686952590942383
1685919001221609200,1.741609130859375,8.270791053771973,-0.7707880139350891,-2.162513494491577
1685919001231371000,1.75137109375,8.589336395263672,-0.9646066427230835,-1.4635101556777954
1685919001241132800,1.7611328125,8.929117202758789,-0.48813581466674805,-0.8697910308837891
1685919001250893600,1.7708935546875,9.087342262268066,-0.2225325107574463,-0.3478565812110901
1685919001260654600,1.780654541015625,8.89801025390625,-0.12442677468061447,0.243469700217247
1685919001270416400,1.79041650390625,8.630014419555664,0.012263216078281403,0.5309075117111206
1685919001280178200,1.80017822265625,8.309076309204102,0.15583257377147675,0.7127620577812195
1685919001289939200,1.809939208984375,8.22293472290039,0.26590242981910706,0.9690931439399719
1685919001299700000,1.819699951171875,8.218149185180664,0.3113660514354706,1.074377417564392
1685919001309461800,1.829461669921875,8.589336395263672,0.8117650747299194,1.1772687435150146
1685919001319223600,1.8392236328125,9.235696792602539,1.2044870853424072,1.2801600694656372
1685919001328984600,1.848984619140625,9.980164527893066,1.6163517236709595,1.3591232299804688
1685919001338745600,1.85874560546875,11.153244972229004,2.181356906890869,1.6513466835021973
1685919001348507400,1.86850732421875,12.678370475769043,2.5043880939483643,1.9384855031967163
1685919001358269000,1.87826904296875,13.805988311767578,2.964108943939209,2.1780667304992676
1685919001368030000,1.888030029296875,14.165210723876953,2.909074068069458,2.1613171100616455
1685919001377791000,1.897791015625,14.356637001037598,2.6336004734039307,1.711167335510254
1685919001387552800,1.907552734375,13.987842559814453,2.1909282207489014,1.0791629552841187
1685919001397314600,1.917314453125,13.18834114074707,1.7407784461975098,0.43998026847839355
1685919001407075600,1.92707568359375,12.089437484741211,1.2547364234924316,-0.19920247793197632
1685919001416836400,1.93683642578125,11.038390159606934,0.7016952633857727,-0.7857431173324585
1685919001426598100,1.94659814453125,10.008877754211426,0.3616153299808502,-1.1545369625091553
1685919001436360000,1.95635986328125,9.003593444824219,-0.021236300468444824,-1.42043936252594
1685919001446121000,1.966120849609375,8.175078392028809,-0.24646073579788208,-1.5687943696975708
1685919001455881700,1.9758818359375,7.4449687004089355,-0.380458801984787,-1.5496517419815063
1685919001465643500,1.9856435546875,6.865606307983398,-0.4331009089946747,-1.444367527961731
1685919001475405300,1.9954052734375,6.520740985870361,-0.4043870270252228,-1.2598211765289307
1685919001485166300,2.005166259765625,6.3173508644104,-0.2967100143432617,-1.073180913925171
1685919001494927400,2.01492724609375,6.214459419250488,-0.16510476171970367,-0.8889335989952087
1685919001504689200,2.024689208984375,6.125626087188721,-0.014057832770049572,-0.7833502888679504
1685919001514451000,2.034450927734375,6.159424781799316,0.10797612369060516,-0.6756733059883118
1685919001524212000,2.0442119140625,6.391528606414795,0.13190434873104095,-0.5536393523216248
1685919001533972700,2.05397265625,6.614060878753662,0.2515454888343811,-0.393320232629776
1685919001543734500,2.063734619140625,6.9445695877075195,0.29700911045074463,-0.28085756301879883
1685919001553496300,2.073496337890625,7.33968448638916,0.4142574071884155,-0.053240302950143814
1685919001563257300,2.08325732421875,7.7368927001953125,0.5581258535385132,0.12382857501506805
1685919001573018000,2.09301806640625,8.14397144317627,0.706480860710144,0.23629122972488403
1685919001582780000,2.10277978515625,8.270791053771973,0.5748756527900696,0.243469700217247
1685919001592541700,2.112541748046875,8.778368949890137,0.857228696346283,0.2841476798057556
1685919001602302700,2.122302734375,9.22134017944336,0.7926225066184998,0.39930227398872375
1685919001612063700,2.132063720703125,9.508479118347168,0.7615157961845398,0.48783671855926514
1685919001621825500,2.141825439453125,9.429515838623047,0.9218349456787109,0.605085015296936
1685919001631587300,2.15158740234375,9.0514497756958,1.3432707786560059,0.667298436164856
1685919001641348000,2.16134814453125,8.66351318359375,1.8987047672271729,0.8539385795593262
1685919001651109000,2.171109130859375,8.201399803161621,2.501995086669922,1.0863415002822876
1685919001660871000,2.180870849609375,7.8664045333862305,3.169891834259033,1.215553879737854
1685919001670632700,2.1906328125,7.852047443389893,3.7133617401123047,1.3423734903335571
1685919001680393700,2.200393798828125,8.096115112304688,4.120440483093262,1.495813250541687
1685919001690154500,2.210154541015625,8.301898002624512,4.347758769989014,1.6274185180664062
1685919001699916300,2.219916259765625,8.646763801574707,4.671088695526123,1.6561323404312134
1685919001709678000,2.229677978515625,8.852546691894531,4.972883701324463,1.6034902334213257
1685919001719439000,2.239439208984375,9.013164520263672,4.912764072418213,1.34476637840271
1685919001729200000,2.2492001953125,9.460622787475586,4.852943420410156,0.9954141974449158
1685919001738962000,2.2589619140625,10.425528526306152,5.2767720222473145,0.8635098934173584
1685919001748723500,2.268723388671875,11.23490047454834,5.030311584472656,0.5859424471855164
1685919001758484500,2.278484375,11.550752639770508,4.833800792694092,0.13100704550743103
1685919001768245500,2.28824560546875,11.77597713470459,4.505984306335449,-0.24496522545814514
1685919001778007300,2.29800732421875,11.881261825561523,4.271188259124756,-0.5847460627555847
1685919001787769000,2.30776904296875,11.78554916381836,5.327021598815918,0.11665010452270508
1685919001797529900,2.31752978515625,11.457432746887207,5.614459037780762,0.8901300430297852
1685919001807291000,2.327290771484375,11.309078216552734,4.903192520141602,0.9188438653945923
1685919001817052700,2.337052734375,11.89322566986084,3.814159393310547,0.3969094455242157
1685919001826814500,2.346814453125,13.04955768585205,2.5139594078063965,-0.1704886108636856
1685919001836575500,2.356575439453125,12.673584938049316,0.6849454641342163,-0.4387838542461395
1685919001846336500,2.36633642578125,14.035998344421387,0.06969095766544342,-2.0548365116119385
1685919001856098000,2.37609814453125,14.081461906433105,-0.7492526173591614,-2.670090913772583
1685919001865859800,2.38585986328125,13.906487464904785,-1.252044439315796,-2.866302490234375
1685919001875620900,2.395620849609375,14.071890830993652,-1.2445669174194336,-3.0266215801239014
1685919001885382000,2.4053818359375,12.498908996582031,-1.3334003686904907,-2.811267614364624
1685919001895143700,2.415143798828125,11.435897827148438,-1.2110673189163208,-2.8998019695281982
1685919001904905500,2.424905517578125,9.870094299316406,-1.2783654928207397,-2.5624139308929443
1685919001914666200,2.434666259765625,8.112865447998047,-1.4889339208602905,-2.2917258739471436
1685919001924427300,2.44442724609375,6.384349822998047,-1.3597214221954346,-2.1361923217773438
1685919001934189000,2.45418896484375,5.359623432159424,-1.0603195428848267,-2.2438695430755615
1685919001943950800,2.463950927734375,5.1514482498168945,-0.8665009140968323,-2.3060827255249023
1685919001953711900,2.4737119140625,4.873581409454346,-0.9358927607536316,-2.186441659927368
1685919001963472600,2.48347265625,5.038985252380371,-1.1703894138336182,-2.152942180633545
1685919001973234400,2.493234375,5.764309883117676,-1.5343974828720093,-2.145763635635376
1685919001982996200,2.502996337890625,6.458527565002441,-1.9079769849777222,-2.162513494491577
1685919001992757200,2.51275732421875,6.879963397979736,-2.3171496391296387,-2.0691933631896973
1685919002002518300,2.522518310546875,7.1718878746032715,-2.6428725719451904,-2.066800594329834
1685919002012280000,2.532280029296875,7.547860145568848,-2.726621389389038,-2.0548365116119385
1685919002022041900,2.542041748046875,7.911868095397949,-2.5974090099334717,-1.8200407028198242
1685919002031802600,2.551802734375,8.409873962402344,-2.3315064907073975,-1.4659029245376587
1685919002041563600,2.561563720703125,8.878867149353027,-2.020439624786377,-1.1808580160140991
1685919002051325400,2.571325439453125,9.1112699508667,-1.5296118259429932,-1.0157532691955566
1685919002061087200,2.581087158203125,9.281160354614258,-0.9502496719360352,-0.7809575200080872
1685919002070848300,2.59084814453125,9.693025588989258,-0.28953152894973755,-0.498604416847229
1685919002080609000,2.600609130859375,10.226923942565918,0.4214358925819397,-0.247358039021492
1685919002090370800,2.610370849609375,10.873285293579102,0.9888339638710022,-0.03409772366285324
1685919002100132600,2.620132568359375,11.507681846618652,1.3719847202301025,0.08315058797597885
1685919002109893600,2.6298935546875,11.924332618713379,1.6091731786727905,0.08315058797597885
1685919002119654700,2.639654541015625,11.99611759185791,1.633101463317871,-0.05563312768936157
1685919002129416400,2.64941650390625,11.842976570129395,1.4796617031097412,-0.18963119387626648
1685919002139178000,2.659177978515625,11.24207878112793,1.2164511680603027,-0.4387838542461395
1685919002148939000,2.66893896484375,10.475777626037598,0.9146564602851868,-0.6708876490592957
1685919002158700000,2.678699951171875,9.721739768981934,0.6634100675582886,-0.9272187948226929
1685919002168461800,2.6884619140625,8.886046409606934,0.40229329466819763,-1.0205388069152832
1685919002178223600,2.6982236328125,8.218149185180664,0.17258232831954956,-1.0947163105010986
1685919002187984600,2.707984619140625,7.789535045623779,0.09840483218431473,-0.9152546525001526
1685919002197745400,2.717745361328125,7.552645683288574,0.14865410327911377,-0.7642077207565308
1685919002207507200,2.727507080078125,7.468896865844727,0.368793785572052,-0.587138831615448
1685919002217269000,2.73726904296875,7.509574890136719,0.6299105882644653,-0.4052843451499939
1685919002227030000,2.747030029296875,7.818248748779297,0.7998009920120239,-0.29760730266571045
1685919002236791000,2.756791015625,8.076972961425781,0.9433703422546387,-0.22791635990142822
1685919002246552800,2.766552734375,8.44576644897461,0.9625129103660583,-0.2880360186100006
1685919002256314400,2.776314453125,8.90518856048584,0.9840483069419861,-0.28085756301879883
1685919002266075400,2.786075439453125,9.340981483459473,0.7854440212249756,-0.3167499005794525
1685919002275836400,2.79583642578125,9.532706260681152,0.6083751320838928,-0.37417763471603394
1685919002285598200,2.80559814453125,9.63081169128418,0.5916253924369812,-0.5632106065750122
1685919002295360000,2.815360107421875,9.831809043884277,0.5916253924369812,-0.5991029739379883
1685919002305121000,2.82512109375,9.96580696105957,0.6299105882644653,-0.4746761918067932
1685919002314881800,2.8348818359375,10.205389022827148,0.8069794178009033,-0.16809579730033875
1685919002324643600,2.8446435546875,10.372885704040527,1.135095238685608,0.22432711720466614
1685919002334405400,2.8544052734375,10.356136322021484,1.4605190753936768,0.758225679397583
1685919002344166400,2.86416650390625,10.310672760009766,2.0231316089630127,1.2203395366668701
1685919002353927400,2.873927490234375,10.363314628601074,2.3727827072143555,1.648953914642334
1685919002363689200,2.883689208984375,10.372885704040527,2.6312077045440674,1.955235242843628
1685919002373450800,2.89345068359375,10.7799654006958,2.7798616886138916,2.2235305309295654
1685919002383211800,2.903211669921875,11.146066665649414,2.580958366394043,2.3264217376708984
1685919002392972800,2.912972900390625,11.505289077758789,2.542673110961914,1.9648064374923706
1685919002402734600,2.922734619140625,11.58425235748291,2.3392832279205322,1.5077773332595825
1685919002412496400,2.932496337890625,11.462218284606934,2.1092731952667236,0.8949156403541565
1685919002422257200,2.942257080078125,11.261221885681152,1.9250258207321167,0.15732808411121368
1685919002432018200,2.95201806640625,11.110174179077148,1.5227324962615967,-0.587138831615448
1685919002441780000,2.961780029296875,11.169995307922363,0.9481559991836548,-1.1856436729431152
1685919002451541800,2.971541748046875,11.239686012268066,0.5174478888511658,-1.394118309020996
1685919002461302800,2.981302734375,10.980961799621582,0.34725838899612427,-1.5903297662734985
1685919002471063600,2.9910634765625,10.83260726928711,0.45523449778556824,-1.9399809837341309
1685919002480825300,3.000825439453125,10.878070831298828,0.38793638348579407,-2.0093727111816406
1685919002490587100,3.010587158203125,11.237293243408203,0.029012974351644516,-2.0931215286254883
1685919002500348200,3.02034814453125,11.646466255187988,0.01704886183142662,-2.1577277183532715
1685919002510109200,3.030109130859375,12.256935119628906,-0.042771704494953156,-2.3946173191070557
1685919002519871000,3.03987109375,12.77886962890625,-0.06430710852146149,-2.5719852447509766
1685919002529632500,3.049632568359375,13.394124031066895,-0.14117653667926788,-2.851945400238037
1685919002539393500,3.0593935546875,13.59781265258789,-0.34217363595962524,-3.084348440170288
1685919002549154600,3.069154541015625,13.236197471618652,-0.4498506486415863,-3.2614171504974365
1685919002558916400,3.078916259765625,12.465409278869629,-0.6221339106559753,-3.4432718753814697
1685919002568678100,3.08867822265625,11.383255958557129,-0.8569296002388,-3.586841106414795
1685919002578439200,3.098439208984375,10.176674842834473,-1.0172487497329712,-3.5916268825531006
1685919002588200000,3.108199951171875,8.998807907104492,-1.1512467861175537,-3.4648072719573975
1685919002597961700,3.117961669921875,8.017151832580566,-1.3597214221954346,-3.1920254230499268
1685919002607723500,3.1277236328125,7.308577537536621,-1.6923238039016724,-2.8782665729522705
1685919002617484500,3.137484619140625,6.640381813049316,-2.030010938644409,-2.5241286754608154
1685919002627245600,3.14724560546875,6.0370917320251465,-2.2932214736938477,-2.018944025039673
1685919002637007400,3.15700732421875,5.558228015899658,-2.5160529613494873,-1.5400804281234741
1685919002646769200,3.16676904296875,5.239982604980469,-2.638087034225464,-0.9535398483276367
1685919002656530000,3.176530029296875,5.091627597808838,-2.726621389389038,-0.36699917912483215
1685919002666291000,3.186291015625,5.498407363891602,-2.5710878372192383,0.14297115802764893
1685919002676052700,3.196052734375,6.451348781585693,-2.1568305492401123,0.5333003401756287
1685919002685814500,3.205814453125,7.859225749969482,-1.350150227546692,1.0360921621322632
1685919002695575600,3.215575439453125,9.357730865478516,-0.39960137009620667,1.423729419708252
1685919002705336300,3.22533642578125,11.047961235046387,1.0010972023010254,2.1302103996276855
1685919002715098000,3.23509814453125,12.898809432983398,2.188535451889038,2.848356246948242
1685919002724860000,3.24485986328125,14.57468318939209,3.0550363063812256,3.4779677391052246
1685919002734621000,3.254620849609375,15.989439010620117,3.316153049468994,3.8060834407806396
1685919002744382000,3.2643818359375,16.520944595336914,3.2416765689849854,3.763012647628784
1685919002754143700,3.274143798828125,16.054044723510742,2.8971099853515625,3.3032915592193604
1685919002763905300,3.2839052734375,14.754144668579102,2.2842483520507812,2.558525562286377
1685919002773666300,3.293666259765625,13.037592887878418,1.6019947528839111,1.826022744178772
1685919002783427300,3.30342724609375,11.287542343139648,0.97926265001297,1.1174482107162476
1685919002793189000,3.313189208984375,9.678668022155762,0.5150550603866577,0.5309075117111206
1685919002802951000,3.322950927734375,8.39282512664795,0.1175474151968956,-0.04366901144385338
1685919002812712000,3.3327119140625,7.454539775848389,-0.11455638706684113,-0.5201398134231567
1685919002822472700,3.34247265625,6.884748935699463,-0.2560320198535919,-0.833898663520813
1685919002832234500,3.352234375,6.508776664733887,-0.3900300860404968,-0.9726824164390564
1685919002841996300,3.361996337890625,6.281458377838135,-0.5144568681716919,-1.1665010452270508
1685919002851757300,3.37175732421875,6.144768714904785,-0.6317051649093628,-1.3004990816116333
1685919002861518300,3.381518310546875,6.173781394958496,-0.6436693072319031,-1.4659029245376587
1685919002871280000,3.391280029296875,6.151947021484375,-0.5742774605751038,-1.5568302869796753
1685919002881041700,3.401041748046875,6.362814426422119,-0.4977070987224579,-1.597508192062378
1685919002890802700,3.410802734375,6.688238620758057,-0.4785645306110382,-1.573580026626587
1685919002900563700,3.420563720703125,6.93739128112793,-0.46420758962631226,-1.5065809488296509
1685919002910325500,3.430325439453125,6.9206414222717285,-0.4307080805301666,-1.4659029245376587
1685919002920087300,3.44008740234375,6.791429042816162,-0.3684946894645691,-1.3654043674468994
1685919002929848300,3.449848388671875,6.762714862823486,-0.1818545162677765,-1.2861422300338745
1685919002939609000,3.459609130859375,6.714559555053711,-0.13639089465141296,-1.2287144660949707
1685919002949371000,3.469370849609375,6.860820770263672,-0.023629123345017433,-1.089930772781372
1685919002959132700,3.479132568359375,7.334898948669434,0.23718854784965515,-0.8458628058433533
1685919002968893700,3.488893798828125,8.045866012573242,0.6418746709823608,-0.5416752099990845
1685919002978654700,3.49865478515625,8.778368949890137,1.2092727422714233,-0.10827522724866867
1685919002988416500,3.50841650390625,9.448657989501953,1.8843477964401245,0.3681955933570862
1685919002998178000,3.518177978515625,10.023235321044922,2.885145902633667,0.9571290612220764
1685919003007939000,3.52793896484375,10.593026161193848,3.964907169342041,1.7135601043701172
1685919003017700000,3.5377001953125,11.031211853027344,4.953741073608398,2.4771697521209717
1685919003027462000,3.5474619140625,11.124531745910645,5.805884838104248,2.96321177482605
1685919003037223700,3.5572236328125,11.004890441894531,6.3014984130859375,3.106781005859375
1685919003046984400,3.566984375,11.040782928466797,6.169893264770508,2.8507490158081055
1685919003056745500,3.576745361328125,11.198709487915039,5.650351524353027,2.2857437133789062
1685919003066507300,3.58650732421875,11.48375415802002,5.049454212188721,1.4886348247528076
1685919003076269000,3.59626904296875,11.730215072631836,4.525126934051514,0.8730811476707458
1685919003086030000,3.606030029296875,12.094223022460938,4.256831645965576,0.46390849351882935
1685919003095790800,3.615790771484375,12.460623741149902,4.208974838256836,0.10707881301641464
1685919003105552600,3.625552734375,12.424731254577637,4.297509670257568,-0.20159530639648438
1685919003115314400,3.635314453125,12.089437484741211,4.613661289215088,-0.2111666053533554
1685919003125075500,3.645075439453125,12.053544998168945,4.4054856300354,0.34666016697883606
1685919003134836500,3.65483642578125,12.166007995605469,3.495614767074585,0.516550600528717
1685919003144598300,3.664598388671875,12.453445434570312,2.1358933448791504,0.3323032557964325
1685919003154360000,3.674360107421875,12.853046417236328,0.5868397355079651,-0.15134602785110474
1685919003164121000,3.68412109375,13.200304985046387,-0.7229315638542175,-0.8602197170257568
1685919003173881900,3.6938818359375,13.257733345031738,-1.532004714012146,-1.8846468925476074
1685919003183643600,3.7036435546875,13.116556167602539,-1.9366908073425293,-2.6916263103485107
1685919003193405400,3.713405517578125,13.051950454711914,-2.137687921524048,-3.0098717212677
1685919003203166500,3.72316650390625,12.814762115478516,-2.1568305492401123,-2.7921249866485596
1685919003212927500,3.732927490234375,12.21386432647705,-2.1640090942382812,-2.2989044189453125
1685919003222689000,3.74268896484375,11.069497108459473,-1.8098711967468262,-1.6094722747802734
1685919003232450800,3.752450927734375,9.60927677154541,-1.374078392982483,-1.1330015659332275
1685919003242211800,3.7622119140625,8.120043754577637,-1.0268200635910034,-0.6948158740997314
1685919003251972900,3.771972900390625,6.75792932510376,-0.5551348328590393,-0.3837489187717438
1685919003261734700,3.781734619140625,5.6590256690979,-0.1746760457754135,-0.24017956852912903
1685919003271496400,3.791496337890625,4.76829719543457,0.014656038954854012,-0.24975086748600006
1685919003281257200,3.80125732421875,4.212863445281982,0.08404789865016937,-0.28564319014549255
1685919003291018200,3.811018310546875,4.083651065826416,-0.11455638706684113,-0.2665006220340729
1685919003300780000,3.820780029296875,4.344468593597412,-0.4331009089946747,-0.21355941891670227
1685919003310541800,3.830541748046875,4.741976261138916,-0.9023932218551636,-0.16809579730033875
1685919003320302800,3.840302734375,5.457729339599609,-1.2349956035614014,-0.11545369029045105
1685919003330063600,3.850063720703125,6.151947021484375,-1.347757339477539,-0.046061836183071136
1685919003339825400,3.859825439453125,6.781857490539551,-1.3310075998306274,0.01615155301988125
1685919003349587200,3.869587158203125,7.253243446350098,-1.2014961242675781,0.049651071429252625
1685919003359348200,3.87934814453125,7.691429138183594,-1.012463092803955,0.08793623000383377
1685919003369109200,3.889109130859375,7.993224143981934,-0.6894320249557495,0.15493527054786682
1685919003378871000,3.89887109375,8.443373680114746,-0.31106695532798767,0.21954147517681122
1685919003388632800,3.9086328125,9.094520568847656,0.23718854784965515,0.39451664686203003
1685919003398393900,3.918393798828125,9.946664810180664,1.0082756280899048,0.6457630395889282
1685919003408154600,3.928154541015625,10.82542896270752,1.7766708135604858,0.8901300430297852
1685919003417916400,3.93791650390625,11.612966537475586,2.4349961280822754,1.0193424224853516
1685919003427678200,3.94767822265625,12.130115509033203,2.909074068069458,0.9643075466156006
1685919003437439200,3.957439208984375,12.367303848266602,2.9688947200775146,0.9188438653945923
1685919003447200300,3.9672001953125,12.53001594543457,2.5713870525360107,0.6744768619537354
1685919003456961800,3.9769619140625,12.218649864196777,1.92741858959198,0.25304099917411804
1685919003466723600,3.9867236328125,11.55553913116455,1.3432707786560059,-0.24496522545814514
1685919003476484600,3.996484619140625,10.583454132080078,0.8835497498512268,-0.6613163352012634
1685919003486245600,4.00624560546875,9.752845764160156,0.4408775866031647,-0.9535398483276367
1685919003496007400,4.01600732421875,8.938688278198242,0.3041875660419464,-1.2574282884597778
1685919003505769200,4.025769287109375,8.167900085449219,0.3640081584453583,-1.4300106763839722
1685919003515530000,4.035530029296875,7.485646724700928,0.615553617477417,-1.4347963333129883
1685919003525291000,4.045291015625,7.193423271179199,0.924227774143219,-1.4108680486679077
1685919003535052800,4.055052734375,7.210172653198242,1.1231311559677124,-1.2526426315307617
1685919003544814600,4.064814697265625,7.2197442054748535,1.3265210390090942,-1.1353943347930908
1685919003554575600,4.07457568359375,7.40189790725708,1.5107684135437012,-1.085145115852356
1685919003564336400,4.08433642578125,7.8302130699157715,1.597209095954895,-0.9846464991569519
1685919003574098200,4.09409814453125,8.356932640075684,1.5876377820968628,-0.9056833982467651
1685919003583860000,4.10385986328125,8.91236686706543,1.4940186738967896,-0.833898663520813
1685919003593621000,4.11362109375,9.549455642700195,1.3743774890899658,-0.7594220638275146
1685919003603382000,4.123382080078125,10.018449783325195,1.3432707786560059,-0.7307082414627075
1685919003613143800,4.133143798828125,10.28195858001709,1.3863415718078613,-0.651745080947876
1685919003622905300,4.1429052734375,10.131211280822754,1.529910922050476,-0.5943173170089722
1685919003632666400,4.152666259765625,9.994521141052246,1.786242127418518,-0.47228336334228516
1685919003642427400,4.162427490234375,10.12881851196289,1.9537396430969238,-0.30239295959472656
1685919003652189200,4.172189208984375,10.341779708862305,2.097309112548828,-0.11066804826259613
1685919003661951000,4.181950927734375,10.67707347869873,2.181356906890869,0.1381855010986328
1685919003671712000,4.1917119140625,11.0742826461792,2.1981067657470703,0.4016951024532318
1685919003681472800,4.20147265625,11.536396026611328,2.3799612522125244,0.6912266612052917
1685919003691234600,4.211234619140625,11.795120239257812,2.3344976902008057,0.8204390406608582
1685919003700996400,4.220996337890625,11.799905776977539,2.212463617324829,0.8036893010139465
1685919003710757400,4.23075732421875,11.852547645568848,2.042274236679077,0.6864410042762756
1685919003720518400,4.240518310546875,11.86451244354248,2.6336004734039307,0.7366902828216553
1685919003730280200,4.2502802734375,12.453445434570312,3.1890344619750977,0.8539385795593262
1685919003740041700,4.260041748046875,12.177971839904785,2.233999013900757,0.25304099917411804
1685919003749802800,4.269802734375,11.340185165405273,1.2188440561294556,0.09511470049619675
1685919003759563800,4.279563720703125,11.45982551574707,0.6394818425178528,-0.41485562920570374
1685919003769325600,4.28932568359375,10.997712135314941,-0.0810568705201149,-0.1944168359041214
1685919003779087400,4.29908740234375,10.643275260925293,-0.9167501926422119,-0.09631111472845078
1685919003788848400,4.308848388671875,10.789536476135254,-1.5822539329528809,0.11186445504426956
1685919003798609200,4.318609130859375,11.507681846618652,-1.4195420742034912,-0.3693920075893402
1685919003808371000,4.328370849609375,12.173186302185059,-1.158425211906433,-0.9702895879745483
1685919003818132700,4.3381328125,12.80758285522461,-0.9478568434715271,-1.719542145729065
1685919003827893800,4.347893798828125,13.564312934875488,-0.8928219676017761,-2.435295343399048
1685919003837654800,4.35765478515625,13.858630180358887,-0.9622138142585754,-3.0556344985961914
1685919003847416600,4.36741650390625,13.540385246276855,-1.2616157531738281,-3.0652058124542236
1685919003857178000,4.37717822265625,12.640085220336914,-1.5176477432250977,-2.7921249866485596
1685919003866939100,4.386939208984375,11.294720649719238,-1.4745769500732422,-2.5887351036071777
1685919003876700200,4.3967001953125,10.12881851196289,-1.46500563621521,-2.0548365116119385
1685919003886462000,4.4064619140625,9.156734466552734,-1.0794621706008911,-1.817647933959961
1685919003896223700,4.4162236328125,8.297112464904785,-0.8282157182693481,-1.333998680114746
1685919003905984800,4.42598486328125,7.40189790725708,-0.7109674215316772,-0.30239295959472656
1685919003915745500,4.43574560546875,7.296613693237305,-0.9167501926422119,0.5907281041145325
1685919003925507300,4.44550732421875,6.808178424835205,-1.3573286533355713,1.430907964706421
1685919003935269000,4.45526904296875,6.640381813049316,-1.4434702396392822,2.015354871749878
1685919003945030100,4.465030029296875,7.406683444976807,-1.4051851034164429,2.3192434310913086
1685919003954791200,4.474791259765625,8.282755851745605,-1.4386845827102661,2.2953150272369385
1685919003964553000,4.484552978515625,8.886046409606934,-0.9981061220169067,2.1445672512054443
1685919003974314500,4.494314453125,9.496515274047852,-0.0690927505493164,2.15653133392334
1685919003984075500,4.504075439453125,10.305887222290039,0.981655478477478,2.2474586963653564
1685919003993836500,4.51383642578125,11.763714790344238,2.171785593032837,2.2067806720733643
1685919004003598300,4.523598388671875,12.874582290649414,3.232105255126953,2.3431715965270996
1685919004013360000,4.533360107421875,13.238590240478516,3.8572301864624023,2.3431715965270996
1685919004023121200,4.54312109375,13.221840858459473,3.8189449310302734,1.986341953277588
1685919004032882000,4.5528818359375,12.664013862609863,3.2033913135528564,1.2801600694656372
1685919004042643700,4.562643798828125,12.384053230285645,2.775076150894165,0.37537404894828796
1685919004052405500,4.572405517578125,11.32104206085205,1.8532410860061646,-0.3717848062515259
1685919004062166500,4.58216650390625,9.939486503601074,0.8452646136283875,-1.042074203491211
1685919004071927600,4.591927490234375,8.658727645874023,0.08165507018566132,-1.6357933282852173
1685919004081689300,4.601689453125,7.363612651824951,-0.607776939868927,-2.152942180633545
1685919004091451000,4.611450927734375,6.3029937744140625,-1.0507482290267944,-2.6748766899108887
1685919004101212000,4.6212119140625,5.7547383308410645,-1.1775678396224976,-2.9261229038238525
1685919004110973000,4.630972900390625,5.682953834533691,-1.074676513671875,-2.7825536727905273
1685919004120734700,4.640734619140625,5.816951751708984,-0.9574281573295593,-2.3706889152526855
1685919004130496500,4.65049658203125,5.831308841705322,-0.7588238716125488,-1.9830517768859863
1685919004140257500,4.660257568359375,5.924628734588623,-0.5383850932121277,-1.657328724861145
1685919004150018300,4.670018310546875,5.972485542297363,-0.4833501875400543,-1.4730814695358276
1685919004159780000,4.679780029296875,5.982056617736816,-0.3852444589138031,-1.3244273662567139
1685919004169542000,4.6895419921875,6.128018856048584,-0.3086741268634796,-1.1353943347930908
1685919004179303000,4.699302978515625,6.264708995819092,-0.2871387302875519,-1.0660024881362915
1685919004189064000,4.70906396484375,6.37956428527832,-0.20817556977272034,-0.9678967595100403
1685919004198825700,4.71882568359375,6.403492450714111,0.033798620104789734,-1.0636097192764282
1685919004208587300,4.728587158203125,6.436992168426514,0.4262215197086334,-1.0683952569961548
1685919004218348300,4.738348388671875,6.6092753410339355,0.8668000102043152,-1.01814603805542
1685919004228109300,4.748109375,7.011568546295166,1.2834502458572388,-0.8626125454902649
1685919004237871000,4.75787109375,7.41625452041626,1.7742780447006226,-0.7043871879577637
1685919004247633000,4.7676328125,8.065009117126465,2.39192533493042,-0.41485562920570374
1685919004257393700,4.7773935546875,8.6874418258667,3.200998544692993,-0.1178465187549591
1685919004267154700,4.78715478515625,9.273982048034668,4.268795490264893,0.25064817070961
1685919004276916500,4.79691650390625,9.860523223876953,5.892026424407959,0.9571290612220764
1685919004286678300,4.80667822265625,10.549955368041992,7.342974662780762,2.1517457962036133
1685919004296439300,4.816439208984375,11.22054386138916,8.147261619567871,3.2267212867736816
1685919004306200000,4.826199951171875,11.917154312133789,8.075477600097656,3.3272199630737305
1685919004315961900,4.8359619140625,12.5683012008667,7.268796920776367,2.656930446624756
1685919004325723600,4.8457236328125,12.78604793548584,6.129215240478516,1.550848126411438
1685919004335484700,4.855484619140625,12.711870193481445,5.087738990783691,0.4423730969429016
1685919004345245700,4.86524560546875,13.004094123840332,4.29033088684082,-0.5416752099990845
1685919004355007500,4.875007568359375,13.33430290222168,4.130012035369873,-1.1114661693572998
1685919004364769300,4.884769287109375,13.367802619934082,4.089334011077881,-0.7980063557624817
1685919004374530300,4.8945302734375,13.355838775634766,3.924229145050049,0.42801615595817566
1685919004384291000,4.904291015625,14.545669555664062,4.261617183685303,1.0408778190612793
1685919004394052900,4.914052978515625,15.323935508728027,3.3041889667510986,1.6298112869262695
1685919004403814700,4.923814697265625,15.958332061767578,2.140678882598877,1.7997016906738281
1685919004413575700,4.93357568359375,16.152151107788086,0.8165507316589355,1.074377417564392
1685919004423336700,4.943336669921875,14.672788619995117,-1.007677435874939,-0.20877377688884735
1685919004433098200,4.95309814453125,14.244174003601074,-1.2735798358917236,-1.8894325494766235
1685919004442860000,4.962860107421875,13.384552955627441,-1.9510477781295776,-2.3084757328033447
1685919004452621000,4.97262109375,11.014461517333984,-2.4370899200439453,-2.490629196166992
1685919004462382000,4.982382080078125,9.578169822692871,-2.5639095306396484,-2.9261229038238525
1685919004472144000,4.992143798828125,8.953044891357422,-2.482553482055664,-2.9955148696899414
1685919004481905700,5.00190576171875,8.148757934570312,-2.353041887283325,-2.3515465259552
1685919004491666400,5.01166650390625,7.6028947830200195,-2.027618169784546,-1.5041881799697876
1685919004501427500,5.021427490234375,7.028318405151367,-1.4841482639312744,-0.836291491985321
1685919004511189200,5.031189208984375,6.226423740386963,-0.9502496719360352,-0.3167499005794525
1685919004520951000,5.040950927734375,5.519942760467529,-0.5240281820297241,-0.13698910176753998
1685919004530712000,5.050712158203125,4.878366947174072,-0.5359922647476196,-0.13938191533088684
1685919004540472800,5.060472900390625,4.29661226272583,-0.8497511148452759,-0.11306086927652359
1685919004550234600,5.070234619140625,3.9640097618103027,-1.2592228651046753,-0.24257239699363708
1685919004559996400,5.079996337890625,3.851248025894165,-1.4578272104263306,-0.4292125701904297
1685919004569757400,5.08975732421875,4.038187503814697,-1.3668999671936035,-0.4124628007411957
1685919004579518500,5.0995185546875,4.684548377990723,-1.0818549394607544,-0.048454657196998596
1685919004589280300,5.1092802734375,5.6207404136657715,-0.766002357006073,0.32991042733192444
1685919004599042000,5.1190419921875,6.281458377838135,-0.23449662327766418,0.8706883192062378
1685919004608803000,5.128802978515625,7.159923553466797,0.37118661403656006,1.399801254272461
1685919004618563800,5.138563720703125,8.266005516052246,1.6713865995407104,2.09431791305542
1685919004628325600,5.14832568359375,9.197412490844727,3.1651060581207275,3.0637102127075195
1685919004638087400,5.15808740234375,10.219745635986328,4.3310089111328125,3.7893338203430176
1685919004647848400,5.167848388671875,11.146066665649414,4.750051975250244,4.157828330993652
1685919004657609500,5.177609375,12.012866973876953,4.232903480529785,3.784548044204712
1685919004667371000,5.18737109375,12.824333190917969,3.002394199371338,2.728715181350708
1685919004677132800,5.1971328125,12.956236839294434,1.4676976203918457,1.2729816436767578
1685919004686893800,5.206893798828125,12.431910514831543,0.11994023621082306,-0.18484555184841156
1685919004696654800,5.21665478515625,11.273185729980469,-0.7636095285415649,-1.3076776266098022
1685919004706416600,5.226416748046875,10.071091651916504,-1.1536396741867065,-2.0859432220458984
1685919004716178400,5.236178466796875,8.970093727111816,-1.1512467861175537,-2.4161527156829834
1685919004725939200,5.245939208984375,8.009973526000977,-0.9837492108345032,-2.6126632690429688
1685919004735700200,5.2557001953125,7.318149089813232,-0.6580262184143066,-2.646162748336792
1685919004745462000,5.2654619140625,6.834499835968018,-0.30628129839897156,-2.54327130317688
1685919004755223800,5.275223876953125,6.76510763168335,0.0026919255033135414,-2.4161527156829834
1685919004764984800,5.28498486328125,6.973283290863037,0.2706880569458008,-2.296511650085449
1685919004774745600,5.29474560546875,7.607680320739746,0.41904306411743164,-2.1361923217773438
1685919004784507400,5.30450732421875,8.23250675201416,0.5222335457801819,-1.9950158596038818
1685919004794269200,5.314269287109375,8.91236686706543,0.6203392744064331,-1.846361756324768
1685919004804030200,5.3240302734375,9.822237968444824,0.7495517134666443,-1.7530417442321777
1685919004813791200,5.333791259765625,10.595418930053711,0.9625129103660583,-1.5209379196166992
1685919004823553000,5.343552978515625,10.985748291015625,1.446162223815918,-1.2143574953079224
1685919004833314800,5.353314697265625,11.162817001342773,2.121237277984619,-0.7713862061500549
1685919004843075600,5.36307568359375,11.419147491455078,2.7726831436157227,-0.32153555750846863
1685919004852836600,5.372836669921875,11.653644561767578,3.0287153720855713,0.09990034252405167
1685919004862598400,5.382598388671875,11.799905776977539,3.07417893409729,0.3849453330039978
1685919004872360200,5.392360107421875,11.799905776977539,2.830111026763916,0.45912283658981323
1685919004882121200,5.402121337890625,11.919547080993652,2.3560330867767334,0.3080759048461914
1685919004891882200,5.41188232421875,11.850154876708984,1.7575281858444214,0.04486542567610741
1685919004901643800,5.421643798828125,11.35932731628418,1.3911272287368774,-0.24496522545814514
1685919004911405600,5.431405517578125,10.94985580444336,1.2523435354232788,-0.43639102578163147
1685919004921166600,5.44116650390625,10.53799057006836,1.2523435354232788,-0.44835513830184937
1685919004930927600,5.450927734375,10.195816993713379,1.257129192352295,-0.6110670566558838
1685919004940689400,5.460689453125,9.999306678771973,1.261914849281311,-0.9320043921470642
1685919004950451200,5.470451171875,10.025628089904785,1.1494522094726562,-1.2023934125900269
1685919004960212000,5.4802119140625,10.1814603805542,1.1255239248275757,-1.3435698747634888
1685919004969973000,5.489972900390625,10.600204467773438,1.0298110246658325,-1.42043936252594
1685919004979734800,5.49973486328125,10.93310546875,0.893121063709259,-1.4228321313858032
1685919004989496600,5.50949658203125,11.371291160583496,0.6610172390937805,-1.42043936252594
1685919004999257600,5.519257568359375,11.682358741760254,0.5796613097190857,-1.1497513055801392
1685919005009018400,5.529018310546875,11.356934547424316,0.8979067206382751,-0.46031925082206726
1685919005018780200,5.5387802734375,10.631311416625977,0.39511483907699585,-0.022133609279990196
1685919005028542000,5.5485419921875,10.358529090881348,-0.8497511148452759,-0.1944168359041214
1685919005038303000,5.558302978515625,10.116853713989258,-1.716252088546753,-0.4339981973171234
1685919005048064000,5.56806396484375,10.032806396484375,-1.9869401454925537,-1.0947163105010986
1685919005057825800,5.57782568359375,10.482955932617188,-1.8601205348968506,-2.3563320636749268
1685919005067587600,5.587587646484375,11.409576416015625,-1.7617156505584717,-3.7713875770568848
1685919005077348400,5.597348388671875,12.606586456298828,-1.6109678745269775,-4.760221481323242
1685919005087109400,5.607109375,13.669597625732422,-1.6013965606689453,-5.413761138916016
1685919005096871200,5.61687109375,13.717453956604004,-1.6325032711029053,-5.6099724769592285
1685919005106633000,5.626633056640625,12.843475341796875,-1.709073543548584,-5.257928848266602
1685919005116394000,5.63639404296875,11.550752639770508,-1.5487544536590576,-4.334000110626221
1685919005126154800,5.64615478515625,10.332208633422852,-1.441077470779419,-3.122633457183838
1685919005135916500,5.65591650390625,9.063413619995117,-1.3956137895584106,-2.0093727111816406
1685919005145678300,5.66567822265625,7.871190071105957,-1.5655041933059692,-1.0612168312072754
1685919005155439400,5.675439453125,6.781857490539551,-1.6683956384658813,-0.25692933797836304
1685919005165200400,5.685200439453125,5.936593055725098,-1.7784653902053833,0.43998026847839355
1685919005174962200,5.694962158203125,5.417051315307617,-1.6301103830337524,0.844367265701294
1685919005184723700,5.7047236328125,5.014758110046387,-0.9957132935523987,0.9499505758285522
1685919005194484700,5.714484619140625,4.959722995758057,0.30658039450645447,0.6481558084487915
1685919005204245800,5.724245849609375,5.781059741973877,2.8325037956237793,0.6122635006904602
1685919005214007600,5.734007568359375,7.81346321105957,4.968098163604736,1.1988041400909424
1685919005223769300,5.743769287109375,10.67707347869873,5.858527183532715,1.9073787927627563
1685919005233530400,5.7535302734375,14.136497497558594,5.523531913757324,2.1684954166412354
1685919005243291400,5.76329150390625,16.86581039428711,5.1427741050720215,1.5843477249145508
1685919005253053000,5.773052978515625,17.37787437438965,4.113262176513672,0.7319046258926392
1685919005262814700,5.782814697265625,16.36541175842285,3.0454649925231934,-0.3406781256198883
1685919005272575700,5.79257568359375,14.423635482788086,1.963310956954956,-1.2789636850357056
1685919005282336800,5.802336669921875,12.173186302185059,0.9385846853256226,-1.999801516532898
1685919005292098600,5.8120986328125,10.042377471923828,0.20847466588020325,-2.435295343399048
1685919005301860400,5.8218603515625,8.199007034301758,-0.14835500717163086,-2.7227330207824707
1685919005311621000,5.83162109375,6.784250259399414,-0.5048855543136597,-2.904587507247925
1685919005321382100,5.841382080078125,5.9437713623046875,-0.8449655175209045,-2.8950161933898926
1685919005331144000,5.85114404296875,5.60399055480957,-1.1249257326126099,-2.8328030109405518
1685919005340905700,5.86090576171875,5.515157222747803,-1.3549357652664185,-2.741875648498535
1685919005350666800,5.870666748046875,5.726024627685547,-1.4554343223571777,-2.5791637897491455
1685919005360427500,5.880427490234375,5.996413707733154,-1.5272190570831299,-2.3994028568267822
1685919005370189300,5.890189208984375,6.183352947235107,-1.46500563621521,-2.131406784057617
1685919005379951000,5.899951171875,6.233602046966553,-1.3549357652664185,-1.8678971529006958
1685919005389712100,5.909712158203125,6.238387584686279,-1.2640085220336914,-1.6142579317092896
1685919005399473200,5.91947314453125,6.142375946044922,-1.129711389541626,-1.4324034452438354
1685919005409235000,5.92923486328125,6.0538411140441895,-0.8808578252792358,-1.3028919696807861
1685919005418996700,5.938996826171875,5.8719868659973145,-0.5431707501411438,-1.2454642057418823
1685919005428757500,5.948757568359375,5.848058700561523,-0.16031911969184875,-1.171286702156067
1685919005438518500,5.9585185546875,5.970092296600342,0.23001007735729218,-1.1330015659332275
1685919005448280300,5.9682802734375,6.092126369476318,0.5892325639724731,-1.1018948554992676
1685919005458042000,5.9780419921875,6.37956428527832,0.8955138921737671,-1.0803594589233398
1685919005467803100,5.98780322265625,6.736393928527832,1.261914849281311,-0.9104689955711365
1685919005477564200,5.997564208984375,7.294220924377441,1.7431713342666626,-0.6493522524833679
1685919005487325700,6.00732568359375,7.950153350830078,2.3967108726501465,-0.3693920075893402
1685919005497087500,6.01708740234375,8.586943626403809,3.1579277515411377,-0.019740786403417587
1685919005506848500,6.0268486328125,9.07537841796875,4.285545349121094,0.4663013219833374
1685919005516609500,6.036609619140625,9.791131019592285,5.298307418823242,1.1198409795761108
1685919005526371300,6.046371337890625,10.621739387512207,5.978168487548828,1.71595299243927
1685919005536133000,6.056133056640625,11.35932731628418,6.189035892486572,2.1397817134857178
1685919005545894000,6.065893798828125,12.03200912475586,5.985346794128418,1.9959131479263306
1685919005555655000,6.075655029296875,12.53001594543457,5.513960838317871,1.4982060194015503
1685919005565416700,6.085416748046875,12.735798835754395,5.015954494476318,0.7199404835700989
1685919005575178500,6.095178466796875,12.876975059509277,4.687838554382324,0.04007977992296219
1685919005584939500,6.104939453125,13.04955768585205,4.431806564331055,-0.36221352219581604
1685919005594700300,6.1147001953125,13.291232109069824,4.268795490264893,-0.5967101454734802
1685919005604462000,6.124462158203125,13.408480644226074,4.125226020812988,-0.7522436380386353
1685919005614224000,6.134223876953125,13.3199462890625,4.098905086517334,-0.7980063557624817
1685919005623985000,6.14398486328125,13.214662551879883,4.237689018249512,-0.37896329164505005
1685919005633746000,6.153745849609375,13.401302337646484,3.9936211109161377,0.4854438900947571
1685919005643507700,6.1635078125,13.545170783996582,2.995215654373169,0.5285146832466125
1685919005653269500,6.17326953125,13.48295783996582,1.8388842344284058,-0.2183450609445572
1685919005663030300,6.1830302734375,13.391731262207031,0.6203392744064331,-0.7881359457969666
1685919005672791300,6.192791259765625,12.707084655761719,-0.7181459069252014,-1.168893814086914
1685919005682553000,6.202552978515625,11.754142761230469,-1.716252088546753,-1.7051852941513062
1685919005692315000,6.21231494140625,10.923534393310547,-2.24057936668396,-2.3156540393829346
1685919005702076000,6.222075927734375,10.191031455993652,-2.3844478130340576,-2.7466611862182617
1685919005711837000,6.2318369140625,9.724132537841797,-2.3147568702697754,-2.9333014488220215
1685919005721598500,6.241598388671875,9.477372169494629,-2.2692930698394775,-2.9715867042541504
1685919005731360300,6.2513603515625,9.396016120910645,-2.144866466522217,-2.985943555831909
1685919005741121300,6.261121337890625,9.297910690307617,-2.2046868801116943,-2.928515911102295
1685919005750882300,6.27088232421875,8.967700958251953,-2.192722797393799,-2.583949327468872
1685919005760644000,6.28064404296875,8.395217895507812,-2.1209380626678467,-2.1122641563415527
1685919005770406000,6.290406005859375,7.622037410736084,-2.1113669872283936,-1.7027924060821533
1685919005780166700,6.300166748046875,6.403492450714111,-2.1424734592437744,-1.3821542263031006
1685919005789927700,6.309927734375,5.345266819000244,-2.3147568702697754,-1.1904292106628418
1685919005799689500,6.319689453125,4.6749773025512695,-2.3315064907073975,-0.8745766878128052
1685919005809451300,6.329451171875,4.548157691955566,-2.123331069946289,-0.37417763471603394
1685919005819212300,6.33921240234375,4.921437740325928,-1.6420745849609375,0.31764721870422363
1685919005828973000,6.34897314453125,5.840879917144775,-0.8808578252792358,1.1892328262329102
1685919005838734800,6.35873486328125,6.673881530761719,-0.12442677468061447,1.8236299753189087
1685919005848496600,6.36849658203125,7.248457908630371,0.39032918214797974,2.235494613647461
1685919005858257700,6.378257568359375,7.672286510467529,0.529412031173706,2.259422779083252
1685919005868018700,6.388018798828125,8.23968505859375,0.5054838061332703,2.324028968811035
1685919005877780500,6.397780517578125,8.895617485046387,0.47916272282600403,2.276172637939453
1685919005887542300,6.407542236328125,9.551849365234375,0.8476574420928955,2.465205430984497
1685919005897303000,6.417302978515625,10.449456214904785,1.5131611824035645,2.7023940086364746
1685919005907064000,6.42706396484375,11.502896308898926,2.3727827072143555,2.831606388092041
1685919005916825900,6.436825927734375,12.477374076843262,2.9593234062194824,2.8914270401000977
1685919005926587600,6.446587646484375,13.059128761291504,2.9832515716552734,2.587538480758667
1685919005936348700,6.4563486328125,13.169198989868164,2.3249263763427734,1.7877376079559326
1685919005946109400,6.466109375,12.673584938049316,1.438983678817749,0.8826524615287781
1685919005955871200,6.475871337890625,11.742178916931152,0.4983053207397461,-0.019740786403417587
1685919005965633000,6.485633056640625,10.528419494628906,-0.15074782073497772,-0.7881359457969666
1685919005975394000,6.49539404296875,9.250054359436035,-0.5240281820297241,-1.3606188297271729
1685919005985155000,6.505155029296875,8.234899520874023,-0.7229315638542175,-1.8080766201019287
1685919005994916900,6.514916748046875,7.385148048400879,-0.7755736112594604,-2.1505494117736816
1685919006004678400,6.524678466796875,6.853642463684082,-0.6990033388137817,-2.38983154296875
1685919006014439400,6.534439453125,6.630810737609863,-0.4546363055706024,-2.51216459274292
1685919006024200400,6.544200439453125,6.796214580535889,-0.21774685382843018,-2.3994028568267822
1685919006033962200,6.553962158203125,7.356434345245361,0.09122636169195175,-2.1337995529174805
1685919006043724000,6.56372412109375,7.983652591705322,0.7112665176391602,-1.7530417442321777
1685919006053485000,6.573485107421875,8.618049621582031,1.4294124841690063,-1.3677972555160522
1685919006063245800,6.583245849609375,9.429515838623047,1.8795621395111084,-0.9296116232872009
1685919006073007600,6.593007568359375,10.179067611694336,2.1092731952667236,-0.6397809386253357
1685919006082769400,6.602769287109375,10.782358169555664,1.9178473949432373,-0.5656034350395203
1685919006092530400,6.612530517578125,11.208579063415527,1.4054841995239258,-0.7642077207565308
1685919006102291500,6.62229150390625,11.376076698303223,0.8404789566993713,-1.207179069519043
1685919006112053200,6.63205322265625,11.079068183898926,0.5868397355079651,-1.542473316192627
1685919006121815000,6.64181494140625,10.648360252380371,0.5581258535385132,-1.7458631992340088
1685919006131575800,6.651575927734375,10.320243835449219,0.582054078578949,-1.6860426664352417
1685919006141336800,6.6613369140625,10.250852584838867,0.5533402562141418,-1.444367527961731
1685919006151098600,6.6710986328125,10.186245918273926,0.5509474277496338,-1.1617153882980347
1685919006160860400,6.6808603515625,10.315458297729492,0.6011967062950134,-0.8697910308837891
1685919006170621400,6.690621337890625,10.449456214904785,0.6562315821647644,-0.5440680384635925
1685919006180382200,6.70038232421875,10.497312545776367,0.737587571144104,-0.2063809484243393
1685919006190144000,6.71014404296875,10.50927734375,0.890728235244751,0.13100704550743103
1685919006199905800,6.71990576171875,10.540383338928223,1.103988528251648,0.5285146832466125
1685919006209666800,6.729666748046875,10.744072914123535,1.4270195960998535,0.8108677864074707
1685919006219427800,6.739427734375,10.937891006469727,1.6522440910339355,0.973878800868988
1685919006229189600,6.749189697265625,11.184351921081543,1.5828521251678467,0.8587242364883423
1685919006238951400,6.758951416015625,11.361720085144043,1.1757732629776,0.5045864582061768
1685919006248712400,6.76871240234375,11.478968620300293,0.8261220455169678,0.1501496136188507
1685919006258473200,6.77847314453125,11.486146926879883,0.5174478888511658,-0.12741780281066895
1685919006268235000,6.788235107421875,11.368898391723633,0.39990049600601196,-0.19920247793197632
1685919006277996800,6.797996826171875,11.047961235046387,0.802193820476532,0.13100704550743103
1685919006287757800,6.8077578125,10.382457733154297,0.9337990283966064,0.49262237548828125
1685919006297518800,6.817518798828125,10.078269958496094,0.4695914387702942,0.3323032557964325
1685919006307280400,6.8272802734375,10.358529090881348,-0.4091726839542389,-0.23270200192928314
1685919006317042200,6.837042236328125,10.734501838684082,-1.2903295755386353,-0.742672324180603
1685919006326803200,6.84680322265625,11.263614654541016,-2.0228323936462402,-1.2717852592468262
1685919006336564200,6.856564208984375,12.012866973876953,-2.329113721847534,-1.8990038633346558
1685919006346326000,6.866325927734375,12.913166046142578,-2.3315064907073975,-2.461616277694702
1685919006356087800,6.876087890625,13.8251314163208,-2.3315064907073975,-2.8136603832244873
1685919006365848600,6.8858486328125,14.191532135009766,-2.1520447731018066,-3.2303106784820557
1685919006375609600,6.895609619140625,13.633705139160156,-2.013261079788208,-3.5581271648406982
1685919006385371400,6.905371337890625,12.350554466247559,-1.922333836555481,-3.5365917682647705
1685919006395133200,6.91513330078125,10.765607833862305,-1.831406593322754,-3.139383316040039
1685919006404894200,6.924894287109375,9.144769668579102,-1.8792630434036255,-2.545664072036743
1685919006414655000,6.934655029296875,7.75842809677124,-1.9821544885635376,-1.8750756978988647
1685919006424416800,6.944416748046875,6.6954169273376465,-2.2214367389678955,-0.9966106414794922
1685919006434178600,6.954178466796875,5.843272686004639,-2.4059832096099854,-0.3047857880592346
1685919006443939600,6.963939697265625,5.199304580688477,-2.420340061187744,0.29371899366378784
1685919006453700600,6.97370068359375,4.9190449714660645,-2.3243281841278076,0.88025963306427
1685919006463462400,6.98346240234375,4.914259433746338,-2.082653045654297,1.4670994281768799
1685919006473224200,6.99322412109375,5.407480239868164,-0.9382855892181396,1.9743777513504028
1685919006482985000,7.00298486328125,6.594918251037598,1.9202401638031006,2.80767822265625
1685919006492746000,7.01274609375,8.866903305053711,5.13320255279541,4.476373195648193
1685919006502507800,7.0225078125,12.1564359664917,6.880860805511475,6.209673881530762
1685919006512269600,7.03226953125,16.075580596923828,6.67507791519165,6.846463680267334
1685919006522030600,7.042030517578125,18.735502243041992,5.463412284851074,5.994319915771484
1685919006531791600,7.05179150390625,19.113866806030273,3.806980848312378,4.385445594787598
1685919006541553200,7.06155322265625,15.855441093444824,1.8460626602172852,3.011068105697632
1685919006551315000,7.07131494140625,16.85145378112793,1.0322039127349854,1.0959128141403198
1685919006561076000,7.081075927734375,14.217852592468262,-0.08584251254796982,0.08075776696205139
1685919006570837000,7.0908369140625,11.639287948608398,-1.0794621706008911,-0.900897741317749
1685919006580598800,7.100598876953125,10.047163009643555,-1.4841482639312744,-1.7291134595870972
1685919006590360600,7.110360595703125,8.349754333496094,-1.7904295921325684,-2.1361923217773438
1685919006600121300,7.120121337890625,6.707380771636963,-1.989332914352417,-2.2917258739471436
1685919006609882400,7.12988232421875,5.582156181335449,-2.0012969970703125,-2.38983154296875
1685919006619644200,7.13964404296875,4.775475978851318,-1.86729896068573,-2.365903377532959
1685919006629406000,7.149406005859375,4.387539386749268,-1.7258232831954956,-2.231905221939087
1685919006639167000,7.1591669921875,4.1650071144104,-1.6301103830337524,-1.9782661199569702
1685919006648928000,7.168927978515625,4.1506500244140625,-1.5056836605072021,-1.657328724861145
1685919006658689800,7.178689697265625,4.176970958709717,-1.3812568187713623,-1.4060823917388916
1685919006668451300,7.188451416015625,4.430610179901123,-1.1632108688354492,-1.2047861814498901
1685919006678212400,7.19821240234375,4.610371112823486,-0.9861420392990112,-1.1856436729431152
1685919006687973400,7.207973388671875,4.966901779174805,-0.8282157182693481,-1.144965648651123
1685919006697735200,7.217735107421875,5.297410011291504,-0.7731808423995972,-1.1569297313690186
1685919006707497000,7.2274970703125,5.531907081604004,-0.6556333899497986,-1.231107234954834
1685919006717257700,7.2372578125,5.862415313720703,-0.35413774847984314,-1.3507484197616577
1685919006727018800,7.247018798828125,6.341279029846191,0.07208377867937088,-1.475474238395691
1685919006736780500,7.256780517578125,7.095317363739014,0.4624129831790924,-1.456331729888916
1685919006746542300,7.266542236328125,7.832605838775635,0.8835497498512268,-1.3052847385406494
1685919006756303400,7.276303466796875,8.486444473266602,1.2116655111312866,-1.140179991722107
1685919006766064000,7.286064208984375,9.254839897155762,1.7216359376907349,-0.9678967595100403
1685919006775826000,7.295825927734375,9.975378036499023,2.2244277000427246,-0.867398202419281
1685919006785587700,7.305587646484375,10.51645565032959,2.791825771331787,-0.5536393523216248
1685919006795348700,7.3153486328125,11.012068748474121,3.2057840824127197,-0.17288143932819366
1685919006805109800,7.32510986328125,11.256436347961426,3.5410783290863037,0.1788634955883026
1685919006814871600,7.33487158203125,11.32104206085205,3.869194269180298,0.4064807593822479
1685919006824633300,7.34463330078125,11.361720085144043,4.091726779937744,0.5787639617919922
1685919006834394400,7.354394287109375,11.48375415802002,4.185046672821045,0.6122635006904602
1685919006844155100,7.364155029296875,11.656037330627441,4.000799655914307,0.497408002614975
1685919006853917000,7.3739169921875,11.739786148071289,3.73250412940979,0.13579268753528595
1685919006863678700,7.3836787109375,11.768798828125,3.5458641052246094,-0.09631111472845078
1685919006873439700,7.393439697265625,11.8621187210083,4.034298896789551,0.0975075215101242
1685919006883200800,7.40320068359375,12.453445434570312,4.623232364654541,1.0360921621322632
1685919006892962300,7.41296240234375,13.410873413085938,4.637589454650879,1.9049859046936035
1685919006902724000,7.42272412109375,14.464313507080078,4.311866283416748,2.134995937347412
1685919006912485000,7.432485107421875,15.639787673950195,3.2467613220214844,1.9935203790664673
1685919006922246100,7.44224609375,16.168901443481445,1.6259230375289917,1.3782658576965332
1685919006932008000,7.452008056640625,15.735799789428711,0.20368902385234833,0.46390849351882935
1685919006941769700,7.461769775390625,14.842679023742676,-0.8306085467338562,-0.5608177781105042
1685919006951530500,7.471530517578125,13.607383728027344,-1.342971682548523,-1.5544373989105225
1685919006961291500,7.48129150390625,12.400803565979004,-1.4578272104263306,-2.2893331050872803
1685919006971053300,7.49105322265625,11.237293243408203,-1.3812568187713623,-2.8064818382263184
1685919006980815000,7.500815185546875,9.980164527893066,-1.215852975845337,-3.122633457183838
1685919006990576000,7.510576171875,8.936295509338379,-1.038784146308899,-3.2757742404937744
1685919007000337200,7.520337158203125,8.060222625732422,-0.9646066427230835,-3.4121651649475098
1685919007010099000,7.530098876953125,7.344470024108887,-0.9550353288650513,-3.2542388439178467
1685919007019860500,7.539860595703125,6.784250259399414,-0.9550353288650513,-3.067598581314087
1685919007029621500,7.54962158203125,6.37956428527832,-0.8976075649261475,-2.880659341812134
1685919007039382500,7.559382568359375,6.149554252624512,-0.8353942036628723,-2.6820549964904785
1685919007049144300,7.569144287109375,5.9676995277404785,-0.9334999322891235,-2.497807741165161
1685919007058906000,7.578906005859375,5.709274768829346,-1.0004990100860596,-2.3611178398132324
1685919007068667100,7.588667236328125,5.654240131378174,-1.0339984893798828,-2.2031915187835693
1685919007078428000,7.598427978515625,5.733202934265137,-1.1799606084823608,-2.004587173461914
1685919007088189700,7.608189697265625,5.8959150314331055,-1.3956137895584106,-1.8296120166778564
1685919007097951500,7.617951416015625,6.080162525177002,-1.555932879447937,-1.6597216129302979
1685919007107712500,7.62771240234375,6.365207195281982,-1.6875381469726562,-1.5520446300506592
1685919007117473500,7.6374736328125,6.736393928527832,-1.685145378112793,-1.4324034452438354
1685919007127235000,7.647235107421875,7.025925636291504,-1.7832510471343994,-1.3268201351165771
1685919007136996900,7.656996826171875,7.248457908630371,-1.8649061918258667,-1.2741780281066895
1685919007146758000,7.6667578125,7.667500972747803,-1.8505492210388184,-1.164108157157898
1685919007156519000,7.676518798828125,7.907082557678223,-1.740180253982544,-1.1282159090042114
1685919007166280700,7.68628076171875,8.225327491760254,-1.4865410327911377,-1.0492527484893799
1685919007176042500,7.69604248046875,8.639585494995117,-1.0555338859558105,-1.085145115852356
1685919007185803500,7.705803466796875,9.683454513549805,-0.5886343717575073,-1.0707881450653076
1685919007195564300,7.715564208984375,10.997712135314941,-0.20817556977272034,-1.0348957777023315
1685919007205326000,7.725326171875,12.094223022460938,0.06011966988444328,-0.9487541913986206
1685919007215087900,7.735087890625,12.699906349182129,0.27308088541030884,-0.8554341197013855
1685919007224849000,7.744848876953125,12.869796752929688,0.38793638348579407,-0.742672324180603
1685919007234610000,7.75460986328125,12.477374076843262,0.40707895159721375,-0.7713862061500549
1685919007244371700,7.764371826171875,11.857333183288574,0.37118661403656006,-0.865005373954773
1685919007254133200,7.77413330078125,11.026426315307617,0.28504499793052673,-0.8697910308837891
1685919007263894300,7.783894287109375,10.047163009643555,0.21565313637256622,-0.9224331378936768
1685919007273655300,7.7936552734375,9.056235313415527,0.2515454888343811,-0.9320043921470642
1685919007283417000,7.8034169921875,8.237292289733887,0.2946162819862366,-0.9439685344696045
1685919007293179000,7.813178955078125,7.674679756164551,0.25633111596107483,-0.9511470198631287
1685919007302939600,7.822939697265625,7.258029460906982,0.20608185231685638,-0.9224331378936768
1685919007312700700,7.83270068359375,7.066603660583496,0.1701895147562027,-0.9535398483276367
1685919007322462500,7.84246240234375,7.035496711730957,0.09840483218431473,-1.0803594589233398
1685919007332224300,7.852224365234375,7.480860710144043,-0.05712864175438881,-1.1617153882980347
1685919007341985300,7.8619853515625,8.304290771484375,-0.1866401731967926,-1.0827522277832031
1685919007351746300,7.871746337890625,8.886046409606934,-0.3086741268634796,-1.1258230209350586
1685919007361507800,7.8815078125,9.30030345916748,-0.2273181527853012,-1.140179991722107
1685919007371269600,7.89126953125,9.559027671813965,-0.18903298676013947,-1.089930772781372
1685919007381030700,7.90103076171875,9.798309326171875,-0.24885354936122894,-1.0085747241973877
1685919007390791700,7.910791748046875,9.941879272460938,-0.23688943684101105,-0.9822536706924438
1685919007400553500,7.920553466796875,9.977771759033203,-0.1579262912273407,-0.9367900490760803
1685919007410315300,7.930315185546875,10.133604049682617,0.11036894470453262,-0.8003991842269897
1685919007420076300,7.940076171875,10.475777626037598,0.33768710494041443,-0.532103955745697
1685919007429837000,7.949837158203125,10.70100212097168,0.6610172390937805,-0.21355941891670227
1685919007439598800,7.959598876953125,10.78714370727539,1.0441679954528809,0.19322042167186737
1685919007449360600,7.969360595703125,10.923534393310547,1.470090389251709,0.4902295470237732
1685919007459121700,7.97912158203125,11.03599739074707,1.7527425289154053,0.9571290612220764
1685919007468882700,7.988882568359375,11.215758323669434,1.8771693706512451,1.3878371715545654
1685919007478644500,7.99864453125,11.421540260314941,1.6809579133987427,1.555633783340454
1685919007488406000,8.008406005859374,11.344970703125,1.5251253843307495,1.6082758903503418
1685919007498167000,8.0181669921875,11.21336555480957,1.2738789319992065,1.4814562797546387
1685919007507928000,8.027927978515624,11.016854286193848,1.1853444576263428,1.399801254272461
1685919007517689900,8.03768994140625,10.827821731567383,0.9577272534370422,1.2993026971817017
1685919007527451600,8.04745166015625,10.542776107788086,0.8883354067802429,1.3256237506866455
1685919007537212700,8.057212646484375,10.344172477722168,0.8093722462654114,1.1581261157989502
1685919007546973400,8.066973388671874,10.308279991149902,0.8333004713058472,1.2323036193847656
1685919007556735200,8.0767353515625,10.528419494628906,0.8955138921737671,1.4117653369903564
1685919007566497000,8.0864970703125,10.736894607543945,0.9577272534370422,1.5125629901885986
1685919007576258000,8.096258056640625,10.60977554321289,1.2667005062103271,1.71595299243927
1685919007586019000,8.10601904296875,10.169496536254883,1.2379865646362305,1.8475581407546997
1685919007595780900,8.11578076171875,9.977771759033203,0.8045865893363953,1.6968103647232056
1685919007605542400,8.12554248046875,10.28195858001709,0.19651055335998535,1.160519003868103
1685919007615303400,8.135303466796875,10.930712699890137,-0.3900300860404968,0.4184448719024658
1685919007625064400,8.145064453125,12.015259742736816,-0.9622138142585754,-0.618245542049408
1685919007634826200,8.154826171875,13.111770629882812,-1.3334003686904907,-1.9157536029815674
1685919007644588000,8.164588134765625,14.16281795501709,-1.4865410327911377,-3.1130621433258057
1685919007654349000,8.17434912109375,14.627325057983398,-1.4051851034164429,-4.00827693939209
1685919007664109800,8.18410986328125,14.790037155151367,-1.551147222518921,-4.6402812004089355
1685919007673871600,8.19387158203125,14.067105293273926,-1.5056836605072021,-4.875077247619629
1685919007683633400,8.20363330078125,12.968201637268066,-1.622931957244873,-4.748257637023926
1685919007693394400,8.21339453125,11.376076698303223,-1.8888343572616577,-4.2693939208984375
1685919007703155500,8.223155517578125,9.683454513549805,-2.144866466522217,-3.7378880977630615
1685919007712917000,8.2329169921875,8.139185905456543,-2.2597219944000244,-3.0867412090301514
1685919007722678800,8.2426787109375,6.736393928527832,-2.305185556411743,-2.437688112258911
1685919007732439800,8.252439697265626,5.711667537689209,-2.3650059700012207,-1.810469388961792
1685919007742200800,8.262200927734375,5.048556804656982,-2.4155545234680176,-1.2598211765289307
1685919007751962600,8.271962646484376,4.840082168579102,-2.5160529613494873,-0.9367900490760803
1685919007761724400,8.281724365234375,5.225625514984131,-2.24057936668396,-0.7307082414627075
1685919007771485400,8.2914853515625,6.0777692794799805,-1.2496516704559326,-0.49621158838272095
1685919007781246200,8.30124609375,7.418647289276123,0.16779668629169464,-0.3837489187717438
1685919007791008000,8.311008056640626,8.962915420532227,1.8987047672271729,-0.18484555184841156
1685919007800769800,8.320769775390625,11.079068183898926,3.1507492065429688,0.1501496136188507
1685919007810530800,8.33053076171875,13.667204856872559,3.4597225189208984,0.6002993583679199
1685919007820291800,8.340291748046875,15.824334144592285,3.2970104217529297,0.5620142221450806
1685919007830053600,8.3500537109375,16.647764205932617,2.7702903747558594,0.14297115802764893
1685919007839815200,8.359815185546875,16.45394515991211,2.1670000553131104,-0.4507479667663574
1685919007849576200,8.369576171875,15.290435791015625,1.3863415718078613,-1.2287144660949707
1685919007859337200,8.379337158203125,13.47338581085205,0.6275177597999573,-1.8894325494766235
1685919007869099000,8.38909912109375,11.48375415802002,-0.07387840002775192,-2.3395824432373047
1685919007878860800,8.39886083984375,9.683454513549805,-0.4259224236011505,-2.6796622276306152
1685919007888621800,8.408621826171874,8.13679313659668,-0.6819544434547424,-2.7586255073547363
1685919007898382600,8.418382568359375,6.817749977111816,-1.012463092803955,-2.708376169204712
1685919007908144400,8.428144287109374,5.953342914581299,-1.2783654928207397,-2.631805896759033
1685919007917906200,8.43790625,5.55104923248291,-1.5798611640930176,-2.701197624206543
1685919007927667200,8.447667236328124,5.230411052703857,-1.7114664316177368,-2.4113669395446777
1685919007937428200,8.45742822265625,5.105984210968018,-1.7234305143356323,-2.2510478496551514
1685919007947190000,8.46718994140625,5.108377456665039,-1.622931957244873,-2.207977056503296
1685919007956951800,8.476951904296875,5.187340259552002,-1.5894324779510498,-2.1577277183532715
1685919007966712600,8.486712646484374,5.4816575050354,-1.567897081375122,-2.131406784057617
1685919007976473600,8.4964736328125,5.807380676269531,-1.5990036725997925,-2.0572292804718018
1685919007986235400,8.5062353515625,6.16181755065918,-1.6588243246078491,-1.949552297592163
1685919007995997200,8.5159970703125,6.520740985870361,-1.6061822175979614,-1.8200407028198242
1685919008005758200,8.52575830078125,6.887141704559326,-1.5415760278701782,-1.7362918853759766
1685919008015519000,8.53551904296875,7.234101295471191,-1.5272190570831299,-1.6525431871414185
1685919008025280800,8.54528076171875,7.677072525024414,-1.5296118259429932,-1.6357933282852173
1685919008035042600,8.55504248046875,7.921439170837402,-1.5990036725997925,-1.6381862163543701
1685919008044803600,8.564803466796874,8.041080474853516,-1.716252088546753,-1.633400559425354
1685919008054564600,8.574564697265625,8.112865447998047,-1.7976080179214478,-1.571187138557434
1685919008064326400,8.584326416015625,8.24686336517334,-1.7425731420516968,-1.3773685693740845
1685919008074088000,8.594087890625,8.529515266418457,-1.4817553758621216,-1.0325030088424683
1685919008083849000,8.603848876953125,8.797511100769043,-1.0268200635910034,-0.651745080947876
1685919008093610000,8.61360986328125,9.137591361999512,-0.4259224236011505,-0.13220344483852386
1685919008103371800,8.623371826171875,9.628418922424316,0.3281157910823822,0.31764721870422363
1685919008113133600,8.633133544921876,10.104889869689941,1.1829516887664795,0.8036893010139465
1685919008122894600,8.64289453125,10.585846900939941,2.4062821865081787,1.4452649354934692
1685919008132655400,8.6526552734375,11.263614654541016,3.9218363761901855,2.355135679244995
1685919008142417200,8.662417236328125,11.976974487304688,5.528317451477051,3.4540395736694336
1685919008152179000,8.672178955078126,12.479766845703125,7.091429233551025,4.54337215423584
1685919008161940000,8.68193994140625,13.104592323303223,7.982157230377197,5.496313571929932
1685919008171701000,8.691700927734376,13.691132545471191,8.228617668151855,5.625525951385498
1685919008181462800,8.701462890625,13.559527397155762,7.864908695220947,4.995914459228516
1685919008191224600,8.711224609375,12.88654613494873,7.045965194702148,3.715156316757202
1685919008200985300,8.7209853515625,12.264113426208496,5.8944196701049805,2.2642083168029785
1685919008210746400,8.730746337890626,11.852547645568848,4.635196685791016,0.7869395613670349
1685919008220508200,8.740508056640625,11.390434265136719,3.4908292293548584,-0.6302096843719482
1685919008230270000,8.75027001953125,11.261221885681152,2.8181469440460205,-1.0348957777023315
1685919008240031000,8.760031005859375,11.519646644592285,2.118844509124756,-0.7929216027259827
1685919008249791700,8.769791748046876,12.01765251159668,1.0010972023010254,-0.833898663520813
1685919008259553500,8.779553466796875,12.396018028259277,-0.3852444589138031,-1.5209379196166992
1685919008269315300,8.7893154296875,13.001701354980469,-1.9127626419067383,-2.7753751277923584
1685919008279076400,8.799076416015625,13.939986228942871,-2.8414769172668457,-4.360321044921875
1685919008288837400,8.80883740234375,14.737394332885742,-3.8638103008270264,-5.629115104675293
1685919008298599200,8.81859912109375,14.993426322937012,-4.876572608947754,-6.067300796508789
1685919008308361000,8.82836083984375,14.639288902282715,-5.7119669914245605,-5.9907307624816895
1685919008318121700,8.838121826171875,13.542778015136719,-6.135795593261719,-5.61236572265625
1685919008327882800,8.8478828125,11.890832901000977,-6.066403388977051,-4.832006454467773
1685919008337644500,8.85764453125,9.992128372192383,-5.451148986816406,-3.5748770236968994
1685919008347406300,8.86740625,8.256434440612793,-4.718646049499512,-2.224726915359497
1685919008357167400,8.87716748046875,6.480062961578369,-3.7848472595214844,-0.9631111025810242
1685919008366928400,8.886928466796874,4.916652202606201,-2.7290141582489014,-0.07238288223743439
1685919008376690000,8.89668994140625,3.7387852668762207,-1.7904295921325684,0.545264482498169
1685919008386451700,8.90645166015625,2.8842484951019287,-1.191924810409546,0.7821539044380188
1685919008396212700,8.916212646484375,2.513062000274658,-0.9598209857940674,0.846760094165802
1685919008405973800,8.925973876953124,2.6255247592926025,-1.1057831048965454,0.7773682475090027
1685919008415735600,8.935735595703125,3.271885871887207,-1.2592228651046753,0.7342974543571472
1685919008425497300,8.945497314453124,4.088436603546143,-1.2951152324676514,0.7127620577812195
1685919008435258000,8.955258056640625,5.117948532104492,-1.3142578601837158,0.8515457510948181
1685919008445019100,8.96501904296875,6.151947021484375,-1.3668999671936035,0.9116654396057129
1685919008454781000,8.974781005859375,7.080960273742676,-1.3716856241226196,1.0241280794143677
1685919008464542700,8.984542724609375,7.763214111328125,-1.4530415534973145,1.191625714302063
1685919008474303700,8.9943037109375,8.285148620605469,-1.6277176141738892,1.3304094076156616
1685919008484064800,9.004064697265624,8.761619567871094,-1.5702898502349854,1.5723835229873657
1685919008493826600,9.01382666015625,9.458230018615723,-0.9717850685119629,1.9049859046936035
1685919008503588000,9.023588134765625,10.348958015441895,0.2754737138748169,2.4508485794067383
1685919008513349000,9.03334912109375,11.361720085144043,1.628315806388855,3.0948169231414795
1685919008523110100,9.043110107421874,12.168400764465332,3.0382864475250244,3.64546537399292
1685919008532872000,9.052871826171875,12.781262397766113,4.07258415222168,3.9544384479522705
1685919008542633700,9.0626337890625,13.07827091217041,4.410271167755127,3.918546199798584
1685919008552394500,9.07239453125,13.08784294128418,4.048655986785889,3.5784661769866943
1685919008562155500,9.082155517578125,12.599407196044922,3.059821844100952,2.903391122817993
1685919008571917300,9.091917236328126,11.636895179748535,1.9010975360870361,1.8690935373306274
1685919008581679000,9.10167919921875,10.463813781738281,1.0369895696640015,0.8949156403541565
1685919008591440100,9.111440185546876,9.149555206298828,0.6777670383453369,0.06640082597732544
1685919008601201000,9.121200927734375,7.9381890296936035,0.7639086246490479,-0.5608177781105042
1685919008610962700,9.130962646484376,7.076174736022949,1.0968101024627686,-1.2167502641677856
1685919008620724500,9.140724365234375,6.637989044189453,1.4437693357467651,-1.6070795059204102
1685919008630485500,9.150485595703126,6.748358249664307,1.4916257858276367,-1.8080766201019287
1685919008640246500,9.16024658203125,7.258029460906982,1.4270195960998535,-1.932802438735962
1685919008650008300,9.17000830078125,7.971688747406006,1.2786645889282227,-2.0931215286254883
1685919008659770000,9.17977001953125,8.546265602111816,1.084846019744873,-2.3539392948150635
1685919008669531100,9.18953125,9.197412490844727,1.017846941947937,-2.3922245502471924
1685919008679292000,9.1992919921875,9.712167739868164,1.013061285018921,-2.56719970703125
1685919008689053700,9.2090537109375,10.171889305114746,1.1685947179794312,-2.5145576000213623
1685919008698815500,9.2188154296875,10.475777626037598,1.477268934249878,-2.286940336227417
1685919008708576500,9.228576416015626,10.856535911560059,1.9657038450241089,-1.9208383560180664
1685919008718337500,9.238337646484375,11.155638694763184,2.2316062450408936,-1.3749756813049316
1685919008728099000,9.24809912109375,11.266007423400879,2.3823540210723877,-0.898504912853241
1685919008737860900,9.25786083984375,11.239686012268066,2.446960210800171,-0.5153541564941406
1685919008747622000,9.267621826171874,11.148459434509277,2.4278175830841064,-0.271286278963089
1685919008757383000,9.2773828125,11.124531745910645,2.336890459060669,-0.03170489892363548
1685919008767144700,9.287144775390624,10.990533828735352,2.4349961280822754,0.26979073882102966
1685919008776906500,9.296906494140625,10.870892524719238,2.5761725902557373,0.514157772064209
1685919008786667300,9.306667236328124,10.959426879882812,2.621636390686035,0.667298436164856
1685919008796428300,9.31642822265625,10.937891006469727,2.580958366394043,0.6409773826599121
1685919008806190000,9.326190185546874,10.988141059875488,2.4038894176483154,0.5117649435997009
1685919008815952000,9.335951904296875,11.119746208190918,2.1382861137390137,0.39451664686203003
1685919008825713000,9.345712890625,11.138888359069824,1.726421594619751,0.12382857501506805
1685919008835474000,9.355473876953125,11.0742826461792,1.3648061752319336,-0.12502498924732208
1685919008845235700,9.365235595703124,10.748858451843262,1.1973086595535278,-0.3287140130996704
1685919008854997200,9.374997314453125,10.28195858001709,1.0992028713226318,-0.3526422381401062
1685919008864758300,9.38475830078125,9.685847282409668,0.8309076428413391,-0.2641077935695648
1685919008874519300,9.394519287109375,9.142376899719238,-0.06430710852146149,-0.5177469849586487
1685919008884281000,9.404281005859374,9.130413055419922,-0.9406784176826477,-1.0277173519134521
1685919008894043000,9.41404296875,9.479764938354492,-1.4171491861343384,-1.4156537055969238
1685919008903804000,9.423803955078125,10.183853149414062,-1.6133606433868408,-1.7937196493148804
1685919008913564700,9.433564697265625,11.251649856567383,-1.716252088546753,-2.191227436065674
1685919008923326500,9.443326416015625,12.39841079711914,-1.7186448574066162,-2.7610182762145996
1685919008933088300,9.453088134765625,13.221840858459473,-1.677966833114624,-3.38105845451355
1685919008942849300,9.462849365234375,13.73898983001709,-1.6061822175979614,-3.960420608520508
1685919008952610300,9.4726103515625,13.506885528564453,-1.6301103830337524,-4.278964996337891
1685919008962371800,9.482371826171875,12.67597770690918,-1.843370795249939,-4.195216178894043
1685919008972133600,9.492133544921876,11.634501457214355,-2.2860429286956787,-3.5030922889709473
1685919008981894700,9.501894775390625,10.226923942565918,-2.506481647491455,-2.638984203338623
1685919008991655700,9.51165576171875,8.845368385314941,-2.4777679443359375,-1.8367904424667358
1685919009001417500,9.52141748046875,7.75124979019165,-2.5184457302093506,-1.1569297313690186
1685919009011179300,9.53117919921875,7.025925636291504,-2.353041887283325,-0.4052843451499939
1685919009020940300,9.540940185546875,6.786643028259277,-2.061117649078369,0.20997019112110138
1685919009030701000,9.550701171875,6.7316083908081055,-1.5966109037399292,0.6960122585296631
1685919009040462800,9.560462890625,7.064210414886475,-0.8066803216934204,0.8036893010139465
1685919009050224600,9.570224609375,7.476075172424316,0.31375887989997864,0.7677969932556152
1685919009059985700,9.579985595703125,8.151150703430176,1.9441684484481812,0.724726140499115
1685919009069746700,9.58974658203125,9.317052841186523,3.6942191123962402,1.1198409795761108
1685919009079508500,9.599508544921875,11.333005905151367,5.080560684204102,1.794916033744812
1685919009089270000,9.60927001953125,13.585848808288574,5.554638862609863,2.283350944519043
1685919009099031000,9.619031005859375,15.754942893981934,5.260022163391113,2.0967109203338623
1685919009108792000,9.6287919921875,16.451553344726562,4.357329845428467,1.4551352262496948
1685919009118553900,9.638553955078125,15.824334144592285,3.323331594467163,0.3897309899330139
1685919009128315600,9.648315673828124,14.351851463317871,2.289033889770508,-0.7139584422111511
1685919009138076700,9.65807666015625,12.295220375061035,1.3983057737350464,-1.4826527833938599
1685919009147837400,9.66783740234375,10.265209197998047,0.7112665176391602,-2.011765718460083
1685919009157599200,9.67759912109375,8.409873962402344,0.1582254022359848,-2.528914451599121
1685919009167361000,9.687361083984374,6.918248653411865,-0.4331009089946747,-2.8328030109405518
1685919009177122000,9.6971220703125,5.92223596572876,-0.9693922996520996,-2.9572296142578125
1685919009186883000,9.706883056640624,5.26391077041626,-1.5655041933059692,-2.969193696975708
1685919009196644900,9.716644775390625,4.777868747711182,-2.0395822525024414,-3.0026934146881104
1685919009206406400,9.726406494140624,4.610371112823486,-2.3844478130340576,-2.9787650108337402
1685919009216167400,9.73616748046875,4.538586139678955,-2.583052158355713,-2.904587507247925
1685919009225928400,9.745928466796874,4.514657974243164,-2.5806591510772705,-2.7753751277923584
1685919009235690200,9.755690185546875,4.6989054679870605,-2.444268226623535,-2.631805896759033
1685919009245452000,9.7654521484375,4.9262237548828125,-2.171187400817871,-2.38983154296875
1685919009255213000,9.775213134765625,5.02432918548584,-1.994118571281433,-2.1888344287872314
1685919009264973800,9.784973876953124,5.082056045532227,-1.716252088546753,-2.0309081077575684
1685919009274735600,9.794735595703125,5.421836853027344,-1.3645070791244507,-1.9181464910507202
1685919009284497400,9.804497314453124,5.86002254486084,-1.1057831048965454,-1.7769699096679688
1685919009294258400,9.814258544921875,6.207281112670898,-0.7827520966529846,-1.7099708318710327
1685919009304019500,9.82401953125,6.649953365325928,-0.41156548261642456,-1.8056837320327759
1685919009313781200,9.83378125,7.238886833190918,-0.06430710852146149,-1.8391833305358887
1685919009323542800,9.843542724609375,7.775177955627441,0.3113660514354706,-1.7841483354568481
1685919009333303800,9.8533037109375,8.275577545166016,0.7016952633857727,-1.6214364767074585
1685919009343064800,9.86306494140625,8.967700958251953,1.2164511680603027,-1.5065809488296509
1685919009352826600,9.87282666015625,9.72652530670166,1.6354942321777344,-1.293320655822754
1685919009362588400,9.88258837890625,10.41356372833252,2.1068804264068604,-1.0612168312072754
1685919009372349400,9.892349365234375,11.007283210754395,2.6647071838378906,-0.7307082414627075
1685919009382110200,9.902110107421874,11.751749992370605,3.399901866912842,-0.3071786165237427
1685919009391872000,9.9118720703125,12.54437255859375,4.271188259124756,0.35383865237236023
1685919009401633800,9.9216337890625,13.363017082214355,4.907978534698486,1.1772687435150146
1685919009411394800,9.931394775390626,14.064712524414062,5.24327278137207,1.589133381843567
1685919009421155800,9.94115576171875,14.330315589904785,5.439484119415283,1.555633783340454
1685919009430917600,9.950917724609376,14.193924903869629,5.571388244628906,1.3112667798995972
1685919009440679400,9.960679443359375,13.96391487121582,5.755635738372803,1.1653046607971191
1685919009450440200,9.970440185546876,14.012070655822754,5.829813480377197,1.1270195245742798
1685919009460201200,9.980201171875,14.01685619354248,5.597709655761719,0.8826524615287781
1685919009469963000,9.989962890625,13.916058540344238,5.55942440032959,0.789332389831543
1685919009479724800,9.999724853515625,14.17956829071045,4.843372344970703,1.0839486122131348
1685919009489485800,10.00948583984375,14.093426704406738,3.0765717029571533,0.4950151741504669
1685919009499246600,10.01924658203125,13.561920166015625,1.6402798891067505,-0.7450651526451111
1685919009509008400,10.02900830078125,12.838689804077148,0.25633111596107483,-1.7697914838790894
1685919009518770200,10.038770263671875,11.881261825561523,-0.9837492108345032,-2.519343137741089
1685919009528531200,10.04853125,10.710573196411133,-1.9151554107666016,-3.1178479194641113
1685919009538292200,10.058292236328125,9.532706260681152,-2.444268226623535,-3.7211382389068604
1685919009548054000,10.068053955078126,8.797511100769043,-2.5471596717834473,-4.24785852432251
1685919009557815800,10.07781591796875,8.25404167175293,-2.504088878631592,-4.561318397521973
1685919009567576600,10.08757666015625,8.033902168273926,-2.5256242752075195,-4.77457857131958
1685919009577337600,10.097337646484375,8.356932640075684,-2.4777679443359375,-4.84397029876709
1685919009587099400,10.107099365234374,8.792725563049316,-2.5710878372192383,-4.422534465789795
1685919009596861200,10.116861083984375,9.05862808227539,-2.5016961097717285,-3.804887056350708
1685919009606622200,10.126622314453124,8.924330711364746,-2.305185556411743,-3.1178479194641113
1685919009616383200,10.13638330078125,8.51755142211914,-2.1352951526641846,-2.5241286754608154
1685919009626144800,10.146144775390624,7.741678714752197,-1.9749759435653687,-1.8296120166778564
1685919009635906600,10.155906494140625,6.8512492179870605,-1.8023936748504639,-1.2382856607437134
1685919009645667600,10.16566748046875,6.178566932678223,-1.6683956384658813,-0.742672324180603
1685919009655428600,10.1754287109375,5.6925249099731445,-1.3908281326293945,-0.3334996700286865
1685919009665190400,10.1851904296875,5.457729339599609,-1.1464611291885376,-0.06999006122350693
1685919009674952000,10.194951904296875,5.510371208190918,-0.8665009140968323,0.12622138857841492
1685919009684713000,10.204712890625,5.800201892852783,-0.6340979933738708,0.3200400173664093
1685919009694474000,10.214473876953125,6.271887302398682,-0.5958128571510315,0.4902295470237732
1685919009704235800,10.22423583984375,6.985247611999512,-0.5216353535652161,0.6314060688018799
1685919009713997600,10.23399755859375,7.648358345031738,-0.2991028428077698,0.755832850933075
1685919009723758600,10.243758544921874,8.356932640075684,0.04336991161108017,0.9667003750801086
1685919009733519400,10.253519287109375,9.128020286560059,1.3767703771591187,1.3615161180496216
1685919009743281200,10.26328125,9.84138011932373,3.16749906539917,2.1756739616394043
1685919009753043000,10.27304296875,10.758429527282715,4.541876316070557,3.1310083866119385
1685919009762804000,10.282803955078125,12.082259178161621,5.061418056488037,3.7271203994750977
1685919009772565000,10.29256494140625,13.499707221984863,4.563411712646484,3.59043025970459
1685919009782326800,10.302326904296875,14.150854110717773,3.4453654289245605,2.7311079502105713
1685919009792088600,10.312088623046876,13.73898983001709,2.1020946502685547,1.3112667798995972
1685919009801849300,10.321849365234375,12.714262962341309,0.8715856671333313,0.10468599200248718
1685919009811610400,10.3316103515625,11.306685447692871,-0.16749759018421173,-0.9918249845504761
1685919009821372200,10.3413720703125,9.84138011932373,-0.8736793398857117,-1.7841483354568481
1685919009831134000,10.351134033203126,8.359326362609863,-1.2640085220336914,-2.186441659927368
1685919009840895000,10.36089501953125,7.009175777435303,-1.191924810409546,-2.4161527156829834
1685919009850655700,10.37065576171875,6.16181755065918,-0.921535849571228,-2.466402053833008
1685919009860417500,10.38041748046875,5.6685967445373535,-0.6340979933738708,-2.35872483253479
1685919009870179300,10.390179443359376,5.369194984436035,-0.3756731450557709,-2.1003000736236572
1685919009879940400,10.3999404296875,5.510371208190918,0.01944168470799923,-1.7985053062438965
1685919009889701400,10.409701416015626,6.185745716094971,0.5772684812545776,-1.290927767753601
1685919009899463200,10.419463134765625,7.018746852874756,1.348056435585022,-0.740279495716095
1685919009909225000,10.429224853515626,7.849654674530029,2.066202402114868,-0.2111666053533554
1685919009918986000,10.438986083984375,8.543871879577637,2.6503500938415527,0.3200400173664093
1685919009928746800,10.448746826171876,9.32183837890625,2.9282166957855225,0.7079764008522034
1685919009938508500,10.458508544921875,10.461421012878418,2.688934564590454,0.7701897621154785
1685919009948270300,10.468270263671876,11.644073486328125,2.2004995346069336,0.5572285652160645
1685919009958031400,10.47803125,12.166007995605469,1.6498512029647827,0.0568295381963253
1685919009967792400,10.48779248046875,11.835798263549805,1.446162223815918,-0.5656034350395203
1685919009977554000,10.497553955078125,11.404790878295898,1.4054841995239258,-1.1306086778640747
1685919009987315700,10.507315673828124,11.16042423248291,1.0968101024627686,-1.5568302869796753
1685919009997076700,10.51707666015625,10.937891006469727,0.7902296781539917,-1.7075780630111694
1685919010006837800,10.526837646484376,10.62413215637207,0.6993024349212646,-1.8008981943130493
1685919010016599600,10.536599609375,10.370492935180664,0.7950153350830078,-1.8128622770309448
1685919010026361300,10.546361328125,10.327422142028809,1.0585249662399292,-1.5855441093444824
1685919010036122000,10.5561220703125,10.466206550598145,1.2690932750701904,-1.207179069519043
1685919010045883100,10.565883056640626,10.590633392333984,1.4437693357467651,-0.8051848411560059
1685919010055645000,10.57564501953125,10.604990005493164,1.8221344947814941,-0.589531660079956
1685919010065406700,10.58540673828125,10.720144271850586,2.080559253692627,-0.3454637825489044
1685919010075167700,10.595167724609375,11.024032592773438,2.1092731952667236,-0.23270200192928314
1685919010084928500,10.604928466796874,11.258829116821289,1.8340985774993896,-0.44356951117515564
1685919010094690300,10.614690185546875,11.15085220336914,1.3600205183029175,-0.8865407705307007
1685919010104452000,10.6244521484375,10.961819648742676,0.8668000102043152,-1.42043936252594
1685919010114213000,10.634213134765625,10.672287940979004,0.6610172390937805,-1.6501502990722656
1685919010123974100,10.64397412109375,10.155138969421387,0.7974081635475159,-1.7745771408081055
1685919010133736000,10.65373583984375,9.566205978393555,0.45523449778556824,-1.8343976736068726
1685919010143497700,10.663497802734375,9.494122505187988,-0.33020952343940735,-2.176870346069336
1685919010153258800,10.6732587890625,9.757631301879883,-0.9526425004005432,-2.6030919551849365
1685919010163019500,10.68301953125,10.370492935180664,-1.1273186206817627,-2.9165515899658203
1685919010172781300,10.69278125,11.371291160583496,-1.2975081205368042,-3.304488182067871
1685919010182543000,10.702543212890625,12.728620529174805,-1.4769697189331055,-3.656532049179077
1685919010192304000,10.71230419921875,13.894522666931152,-1.6277176141738892,-4.017848491668701
1685919010202065200,10.722065185546874,14.351851463317871,-1.622931957244873,-4.2550368309021
1685919010211826700,10.73182666015625,14.284852027893066,-1.555932879447937,-4.305285930633545
1685919010221588500,10.74158837890625,13.506885528564453,-1.563111424446106,-4.216751575469971
1685919010231349500,10.751349609375,12.302398681640625,-1.551147222518921,-3.97717022895813
1685919010241110500,10.761110595703125,10.980961799621582,-1.6348960399627686,-3.579662561416626
1685919010250872300,10.770872314453126,9.681061744689941,-1.7330018281936646,-3.046063184738159
1685919010260634000,10.780634033203125,8.694620132446289,-1.795215129852295,-2.375474691390991
1685919010270395000,10.790394775390626,7.995616912841797,-1.8290138244628906,-1.6381862163543701
1685919010280156000,10.800156005859375,7.351648330688477,-1.9917258024215698,-0.8841479420661926
1685919010289917700,10.809917724609376,6.743572235107422,-2.11615252494812,-0.1537388563156128
1685919010299679500,10.819679443359375,6.295815467834473,-2.068295955657959,0.39451664686203003
1685919010309440500,10.8294404296875,6.106483459472656,-1.8409779071807861,0.9260223507881165
1685919010319201300,10.839201171875,6.159424781799316,-1.3573286533355713,1.2346965074539185
1685919010328963000,10.848963134765626,6.456134796142578,-0.4450650215148926,1.3710874319076538
1685919010338724900,10.858724853515625,7.059424877166748,1.0561320781707764,1.4380863904953003
1685919010348486000,10.86848583984375,8.110472679138184,2.7320053577423096,1.708774447441101
1685919010358247000,10.878246826171875,9.719346046447754,4.266402721405029,2.259422779083252
1685919010368008700,10.8880087890625,11.955439567565918,4.762016296386719,2.7000012397766113
1685919010377770500,10.8977705078125,14.548062324523926,4.161118507385254,2.6545376777648926
1685919010387531300,10.90753125,16.192829132080078,3.3352956771850586,1.802094578742981
1685919010397292300,10.917292236328125,16.171293258666992,2.525923490524292,0.8228318691253662
1685919010407054000,10.92705419921875,15.050854682922363,1.7694923877716064,-0.2231307178735733
1685919010416815900,10.93681591796875,13.157234191894531,1.080060362815857,-0.9343972206115723
1685919010426577000,10.946576904296874,11.193922996520996,0.5222335457801819,-1.3507484197616577
1685919010436338000,10.956337890625,9.535099029541016,0.2108674943447113,-1.6238292455673218
1685919010446099500,10.966099365234374,8.191828727722168,-0.016450656577944756,-1.8296120166778564
1685919010455861200,10.975861328125,7.16949462890625,-0.1579262912273407,-1.9926230907440186
1685919010465622300,10.985622314453124,6.539883613586426,-0.3038884699344635,-2.160120725631714
1685919010475383300,10.99538330078125,6.298208236694336,-0.5790630578994751,-2.2749760150909424
1685919010485145000,11.00514501953125,6.350850582122803,-0.7779664397239685,-2.2917258739471436
1685919010494907000,11.014906982421875,6.57338285446167,-1.0244271755218506,-2.2917258739471436
1685919010504668000,11.02466796875,6.81296443939209,-1.1392827033996582,-2.2654049396514893
1685919010514428700,11.0344287109375,7.042675018310547,-1.2783654928207397,-2.32761812210083
1685919010524190500,11.0441904296875,7.143173694610596,-1.2735798358917236,-2.3539392948150635
1685919010533952300,11.0539521484375,7.157530784606934,-1.2975081205368042,-2.4017956256866455
1685919010543713300,11.06371337890625,7.135995388031006,-1.227817177772522,-2.444866418838501
1685919010553474300,11.073474365234375,7.073781967163086,-1.0794621706008911,-2.4930222034454346
1685919010563236000,11.083236083984374,7.241279602050781,-0.91914302110672,-2.461616277694702
1685919010572997600,11.09299755859375,7.468896865844727,-0.8497511148452759,-2.38265323638916
1685919010582758700,11.102758544921874,7.825427532196045,-0.5862415432929993,-2.239083766937256
1685919010592519700,11.112519775390625,8.287541389465332,-0.3206382393836975,-2.0811574459075928
1685919010602281500,11.122281494140625,8.807083129882812,-0.00687936507165432,-1.9710876941680908
1685919010612043300,11.132043212890625,9.22851848602295,0.3041875660419464,-1.7123637199401855
1685919010621804000,11.141803955078124,9.537491798400879,0.5988038778305054,-1.4611172676086426
1685919010631565000,11.15156494140625,10.025628089904785,1.048953652381897,-1.0947163105010986
1685919010641326800,11.161326904296875,10.554740905761719,1.592423439025879,-0.6684948205947876
1685919010651088600,11.171088623046876,10.851749420166016,1.95852530002594,-0.23778675496578217
1685919010660849700,11.180849609375,10.978569030761719,2.2292134761810303,-0.0771685317158699
1685919010670610400,11.1906103515625,11.009675979614258,2.265105724334717,-0.0077766734175384045
1685919010680372200,11.200372314453125,11.356934547424316,2.3751754760742188,0.11186445504426956
1685919010690134000,11.210134033203126,11.766107559204102,2.42303204536438,0.16450655460357666
1685919010699895000,11.21989501953125,11.823834419250488,2.1454646587371826,0.2315055876970291
1685919010709656000,11.229656005859376,11.443076133728027,1.7168502807617188,0.13579268753528595
1685919010719417900,11.23941796875,10.789536476135254,1.257129192352295,-0.06520441919565201
1685919010729179600,11.2491796875,10.102497100830078,1.0920244455337524,-0.2111666053533554
1685919010738940700,11.258940673828125,9.547062873840332,1.1542378664016724,-0.12741780281066895
1685919010748701400,11.268701416015626,9.329017639160156,1.4294124841690063,0.41126638650894165
1685919010758463200,11.278463134765625,9.728918075561523,2.032702922821045,1.3854442834854126
1685919010768225000,11.28822509765625,10.272387504577637,3.0478577613830566,2.376671075820923
1685919010777986000,11.297986083984375,10.952248573303223,3.3903305530548096,2.5082762241363525
1685919010787747000,11.3077470703125,11.629715919494629,2.549851655960083,1.6992031335830688
1685919010797508600,11.317508544921875,11.957832336425781,1.8460626602172852,0.7055835723876953
1685919010807270400,11.3272705078125,11.845369338989258,1.4988043308258057,-0.03409772366285324
1685919010817031400,11.337031494140625,11.756535530090332,1.3408780097961426,-0.6661019921302795
1685919010826792400,11.34679248046875,11.756535530090332,0.8691928386688232,-1.1808580160140991
1685919010836554200,11.35655419921875,11.397612571716309,-0.06191428750753403,-1.664507269859314
1685919010846316000,11.36631591796875,10.396814346313477,-1.2326027154922485,-2.0165512561798096
1685919010856076800,11.376076904296875,8.878867149353027,-2.113759756088257,-2.694019079208374
1685919010865837800,11.385837890625,7.344470024108887,-2.367398977279663,-3.5844483375549316
1685919010875599600,11.395599609375,6.401099681854248,-2.3099710941314697,-4.355535507202148
1685919010885361400,11.405361328125,6.056233882904053,-2.226222276687622,-4.741078853607178
1685919010895122400,11.415122314453125,6.087340831756592,-2.1017956733703613,-4.810471057891846
1685919010904883200,11.42488330078125,6.8823561668396,-2.092224359512329,-4.556532382965088
1685919010914645000,11.43464501953125,7.840083599090576,-2.092224359512329,-3.931706666946411
1685919010924406800,11.44440673828125,8.64197826385498,-2.027618169784546,-3.31884503364563
1685919010934167800,11.454167724609375,9.101698875427246,-1.903191328048706,-2.7921249866485596
1685919010943928800,11.4639287109375,9.31466007232666,-1.7066807746887207,-2.3850460052490234
1685919010953690600,11.473690673828125,9.20698356628418,-1.594218134880066,-2.059622049331665
1685919010963452400,11.483452392578124,9.108877182006836,-1.3956137895584106,-1.8320047855377197
1685919010973213400,11.49321337890625,8.936295509338379,-1.319043517112732,-1.6477575302124023
1685919010982974200,11.50297412109375,8.55583667755127,-1.2397812604904175,-1.516152262687683
1685919010992736000,11.512736083984375,8.189435958862305,-1.1416754722595215,-1.5592230558395386
1685919011002497800,11.522497802734375,7.911868095397949,-1.0052846670150757,-1.5376876592636108
1685919011012258800,11.5322587890625,7.789535045623779,-0.7516453862190247,-1.4730814695358276
1685919011022019800,11.542019775390624,8.074580192565918,-0.4019941985607147,-1.42043936252594
1685919011031781400,11.551781494140625,8.586943626403809,0.029012974351644516,-1.3363914489746094
1685919011041543200,11.561543212890625,9.388837814331055,0.6610172390937805,-1.2598211765289307
1685919011051304200,11.57130419921875,10.296316146850586,1.4605190753936768,-0.9535398483276367
1685919011061065200,11.581065185546874,11.45982551574707,2.370389938354492,-0.5703890919685364
1685919011070827000,11.590826904296875,12.690335273742676,3.1890344619750977,-0.010169495828449726
1685919011080588800,11.6005888671875,13.542778015136719,3.5482568740844727,0.2745763957500458
1685919011090349800,11.610349853515626,13.987842559814453,3.402294635772705,0.15732808411121368
1685919011100110600,11.620110595703125,13.8251314163208,2.760719060897827,-0.45553362369537354
1685919011109872400,11.629872314453126,13.032807350158691,1.9369899034500122,-1.2215359210968018
1685919011119634200,11.63963427734375,11.86451244354248,1.1494522094726562,-1.8559330701828003
1685919011129395200,11.649395263671876,10.648360252380371,0.49591249227523804,-2.3778674602508545
1685919011139156200,11.65915625,9.376873970031738,-0.05952146276831627,-2.8758738040924072
1685919011148918000,11.66891796875,8.258827209472656,-0.3756731450557709,-3.263810157775879
1685919011158679600,11.678679443359375,7.464111328125,-0.6125625967979431,-3.4265220165252686
1685919011168440600,11.688440673828126,6.911069869995117,-0.8066803216934204,-3.438486099243164
1685919011178201600,11.69820166015625,6.652346134185791,-1.0100702047348022,-3.342773199081421
1685919011187963400,11.70796337890625,6.657131671905518,-1.1057831048965454,-3.2925238609313965
1685919011197725200,11.71772509765625,6.777071952819824,-1.165603756904602,-3.25663161277771
1685919011207486000,11.72748583984375,6.808178424835205,-1.3357932567596436,-3.31884503364563
1685919011217247000,11.7372470703125,7.0785675048828125,-1.3860424757003784,-3.4002010822296143
1685919011227008800,11.7470087890625,7.686643600463867,-1.46500563621521,-3.3068809509277344
1685919011236770600,11.7567705078125,8.297112464904785,-1.4841482639312744,-3.0723843574523926
1685919011246531600,11.766531494140626,8.735298156738281,-1.4745769500732422,-2.883052110671997
1685919011256292400,11.776292236328125,9.056235313415527,-1.323829174041748,-2.7275187969207764
1685919011266054100,11.78605419921875,9.453444480895996,-0.9382855892181396,-2.4930222034454346
1685919011275816000,11.79581591796875,9.783952713012695,-0.5216353535652161,-2.0715861320495605
1685919011285577000,11.805576904296874,10.088140487670898,0.1055833026766777,-1.693221092224121
1685919011295338000,11.815337890625,10.61695384979248,0.7256234884262085,-1.3435698747634888
1685919011305099800,11.825099853515624,11.225329399108887,1.1542378664016724,-1.046859860420227
1685919011314861600,11.834861572265625,11.756535530090332,1.2882359027862549,-0.742672324180603
1685919011324622600,11.84462255859375,11.98654556274414,1.2547364234924316,-0.6038886308670044
1685919011334383400,11.85438330078125,12.185150146484375,1.0824531316757202,-0.5823532342910767
1685919011344145200,11.864145263671874,11.945867538452148,0.8045865893363953,-0.6373881101608276
1685919011353907000,11.873906982421875,11.110174179077148,0.7232306599617004,-0.7642077207565308
1685919011363668000,11.88366796875,10.112068176269531,0.7088736891746521,-0.8434699773788452
1685919011373429000,11.893428955078125,9.266803741455078,0.735194742679596,-0.8769695162773132
1685919011383190800,11.903190673828124,8.931509971618652,0.7758727669715881,-0.7666005492210388
1685919011392952300,11.912952392578125,8.768797874450684,0.8309076428413391,-0.4938187599182129
1685919011402713300,11.92271337890625,8.388039588928223,1.0250253677368164,-0.3837489187717438
1685919011412474400,11.932474365234375,8.079365730285645,1.2403794527053833,-0.4507479667663574
1685919011422236200,11.942236083984374,7.983652591705322,1.1733803749084473,-0.5991029739379883
1685919011431998000,11.951998046875,8.23011302947998,0.8835497498512268,-0.7980063557624817
1685919011441758700,11.9617587890625,8.622835159301758,0.5557330846786499,-0.9343972206115723
1685919011451519700,11.971519775390625,8.78076171875,0.36640095710754395,-1.290927767753601
1685919011461281500,11.981281494140624,9.046664237976074,0.2946162819862366,-1.7530417442321777
1685919011471043300,11.991043212890625,9.45583724975586,0.15104693174362183,-2.303689956665039
1685919011480804400,12.000804443359375,9.98255729675293,-0.09541380405426025,-2.8399813175201416
1685919011490565000,12.010565185546875,10.66989517211914,-0.3086741268634796,-3.31884503364563
1685919011500327000,12.020326904296875,11.565110206604004,-0.380458801984787,-3.804887056350708
1685919011510088700,12.030088623046876,12.314362525939941,-0.3732803463935852,-4.034597873687744
1685919011519849700,12.039849609375,12.95384407043457,-0.33738797903060913,-4.106382846832275
1685919011529610800,12.04961083984375,13.145270347595215,-0.2273181527853012,-4.2000017166137695
1685919011539372500,12.05937255859375,12.88654613494873,-0.22971096634864807,-4.12552547454834
1685919011549134300,12.06913427734375,12.12772274017334,-0.3756731450557709,-3.9269211292266846
1685919011558895400,12.078895263671875,11.263614654541016,-0.5024927258491516,-3.596412420272827
1685919011568656100,12.08865625,10.301101684570312,-0.6293123364448547,-3.2063822746276855
1685919011578418000,12.09841796875,9.336195945739746,-0.8330013751983643,-2.8328030109405518
1685919011588179700,12.1081796875,8.53190803527832,-1.0316057205200195,-2.497807741165161
1685919011597940700,12.117940673828125,8.091329574584961,-1.0244271755218506,-2.1026928424835205
1685919011607701800,12.12770166015625,7.902296543121338,-1.0411769151687622,-1.7147564888000488
1685919011617463300,12.13746337890625,7.9381890296936035,-1.0722836256027222,-1.2885349988937378
1685919011627225000,12.14722509765625,8.132007598876953,-1.1679965257644653,-0.9918249845504761
1685919011636986000,12.156986083984375,8.38564682006836,-1.1727821826934814,-0.776171863079071
1685919011646747100,12.1667470703125,8.866903305053711,-1.2182458639144897,-0.5751747488975525
1685919011656509000,12.176509033203125,9.33141040802002,-1.2397812604904175,-0.22552353143692017
1685919011666270700,12.186270751953124,9.82702350616455,-1.2421740293502808,0.001794616924598813
1685919011676031500,12.196031494140625,10.325029373168945,-1.1081759929656982,0.2602194547653198
1685919011685792500,12.20579248046875,10.727322578430176,-0.8832506537437439,0.5524429082870483
1685919011695554300,12.21555419921875,11.179566383361816,-0.6556333899497986,0.727118968963623
1685919011705316000,12.225316162109374,11.77597713470459,-0.3206382393836975,0.8491529226303101
1685919011715077000,12.2350771484375,12.515658378601074,-0.11455638706684113,0.9020941257476807
1685919011724838100,12.244838134765626,13.466207504272461,-0.10498509556055069,0.9427721500396729
1685919011734600000,12.254599853515625,14.057534217834473,-0.20099709928035736,1.0241280794143677
1685919011744361500,12.264361572265624,14.361422538757324,-0.2560320198535919,0.9332008361816406
1685919011754122500,12.27412255859375,14.071890830993652,-0.46420758962631226,0.8204390406608582
1685919011763883500,12.283883544921874,13.339089393615723,-0.6149554252624512,0.5907281041145325
1685919011773645300,12.293645263671875,12.175579071044922,-0.732502818107605,0.39451664686203003
1685919011783407000,12.303406982421874,11.007283210754395,-0.8090731501579285,0.28175488114356995
1685919011793168100,12.313168212890625,9.98973560333252,-0.8234301209449768,0.24107688665390015
1685919011802929000,12.322928955078124,9.132805824279785,-0.8425726890563965,0.2147558331489563
1685919011812690700,12.332690673828125,8.203792572021484,-0.7636095285415649,0.1908276081085205
1685919011822452500,12.342452392578124,7.47128963470459,-0.6101697683334351,0.052043892443180084
1685919011832213500,12.352213623046875,6.877570629119873,-0.4307080805301666,-0.022133609279990196
1685919011841974500,12.361974609375,6.51116943359375,-0.23688943684101105,-0.019740786403417587
1685919011851736000,12.371736083984375,6.358028888702393,0.024227328598499298,-0.0029910283628851175
1685919011861497900,12.381497802734375,6.439384937286377,0.2922234535217285,-0.022133609279990196
1685919011871259000,12.3912587890625,6.5781683921813965,0.5126622319221497,0.001794616924598813
1685919011881020000,12.40102001953125,6.879963397979736,0.6370890140533447,-0.07956135272979736
1685919011890781700,12.41078173828125,7.226922512054443,0.7926225066184998,-0.1657029688358307
1685919011900543500,12.42054345703125,7.610073089599609,0.8955138921737671,-0.24017956852912903
1685919011910304500,12.430304443359375,8.041080474853516,0.9074779748916626,-0.2952145040035248
1685919011920065300,12.440065185546874,8.448159217834473,0.8883354067802429,-0.3000001311302185
1685919011929827000,12.4498271484375,8.754440307617188,0.859621524810791,-0.26171496510505676
1685919011939588900,12.4595888671875,9.037093162536621,0.7782655358314514,-0.2665006220340729
1685919011949350000,12.469349853515626,9.173483848571777,0.7758727669715881,-0.17527425289154053
1685919011959111000,12.47911083984375,9.21416187286377,0.893121063709259,-0.1178465187549591
1685919011968872700,12.488872802734376,9.252447128295898,0.8691928386688232,-0.01734796352684498
